participant_id,random_id,trial_index,time_elapsed,word,likert_response,age,gender,Q2,Q3
jaguar,p0kqwtb8qfg,154,280791,slice,3,32,male,To test the relationship between how well a word fits into a group and how well you can remember it,Sometimes pressing a key did not take me to the next screen
jaguar,p0kqwtb8qfg,155,288117,drift,1,32,male,To test the relationship between how well a word fits into a group and how well you can remember it,Sometimes pressing a key did not take me to the next screen
jaguar,p0kqwtb8qfg,156,290808,clock,0,32,male,To test the relationship between how well a word fits into a group and how well you can remember it,Sometimes pressing a key did not take me to the next screen
jaguar,p0kqwtb8qfg,157,293336,dentist,3,32,male,To test the relationship between how well a word fits into a group and how well you can remember it,Sometimes pressing a key did not take me to the next screen
jaguar,p0kqwtb8qfg,158,297485,curtain,1,32,male,To test the relationship between how well a word fits into a group and how well you can remember it,Sometimes pressing a key did not take me to the next screen
jaguar,p0kqwtb8qfg,159,298919,book,1,32,male,To test the relationship between how well a word fits into a group and how well you can remember it,Sometimes pressing a key did not take me to the next screen
jaguar,p0kqwtb8qfg,160,300305,elephant,1,32,male,To test the relationship between how well a word fits into a group and how well you can remember it,Sometimes pressing a key did not take me to the next screen
jaguar,p0kqwtb8qfg,161,304234,procedure,2,32,male,To test the relationship between how well a word fits into a group and how well you can remember it,Sometimes pressing a key did not take me to the next screen
jaguar,p0kqwtb8qfg,162,306740,anger,3,32,male,To test the relationship between how well a word fits into a group and how well you can remember it,Sometimes pressing a key did not take me to the next screen
jaguar,p0kqwtb8qfg,163,308315,seat,3,32,male,To test the relationship between how well a word fits into a group and how well you can remember it,Sometimes pressing a key did not take me to the next screen
jaguar,p0kqwtb8qfg,164,309610,cold,3,32,male,To test the relationship between how well a word fits into a group and how well you can remember it,Sometimes pressing a key did not take me to the next screen
jaguar,p0kqwtb8qfg,165,311668,balloon,1,32,male,To test the relationship between how well a word fits into a group and how well you can remember it,Sometimes pressing a key did not take me to the next screen
jaguar,p0kqwtb8qfg,166,315731,frame,0,32,male,To test the relationship between how well a word fits into a group and how well you can remember it,Sometimes pressing a key did not take me to the next screen
jaguar,p0kqwtb8qfg,167,318380,basket,0,32,male,To test the relationship between how well a word fits into a group and how well you can remember it,Sometimes pressing a key did not take me to the next screen
jaguar,p0kqwtb8qfg,168,323635,oven,2,32,male,To test the relationship between how well a word fits into a group and how well you can remember it,Sometimes pressing a key did not take me to the next screen
jaguar,p0kqwtb8qfg,169,326387,fear,3,32,male,To test the relationship between how well a word fits into a group and how well you can remember it,Sometimes pressing a key did not take me to the next screen
jaguar,p0kqwtb8qfg,170,328567,planet,0,32,male,To test the relationship between how well a word fits into a group and how well you can remember it,Sometimes pressing a key did not take me to the next screen
jaguar,p0kqwtb8qfg,171,330609,guitar,1,32,male,To test the relationship between how well a word fits into a group and how well you can remember it,Sometimes pressing a key did not take me to the next screen
jaguar,p0kqwtb8qfg,172,334773,noise,0,32,male,To test the relationship between how well a word fits into a group and how well you can remember it,Sometimes pressing a key did not take me to the next screen
jaguar,p0kqwtb8qfg,173,336108,lighthouse,0,32,male,To test the relationship between how well a word fits into a group and how well you can remember it,Sometimes pressing a key did not take me to the next screen
jaguar,p0kqwtb8qfg,174,338029,black,3,32,male,To test the relationship between how well a word fits into a group and how well you can remember it,Sometimes pressing a key did not take me to the next screen
jaguar,p0kqwtb8qfg,175,342404,doctor,3,32,male,To test the relationship between how well a word fits into a group and how well you can remember it,Sometimes pressing a key did not take me to the next screen
jaguar,p0kqwtb8qfg,176,345376,swivel,3,32,male,To test the relationship between how well a word fits into a group and how well you can remember it,Sometimes pressing a key did not take me to the next screen
jaguar,p0kqwtb8qfg,177,347077,shade,2,32,male,To test the relationship between how well a word fits into a group and how well you can remember it,Sometimes pressing a key did not take me to the next screen
jaguar,p0kqwtb8qfg,178,349525,jam,3,32,male,To test the relationship between how well a word fits into a group and how well you can remember it,Sometimes pressing a key did not take me to the next screen
jaguar,p0kqwtb8qfg,179,350697,bread,3,32,male,To test the relationship between how well a word fits into a group and how well you can remember it,Sometimes pressing a key did not take me to the next screen
jaguar,p0kqwtb8qfg,180,353831,river,0,32,male,To test the relationship between how well a word fits into a group and how well you can remember it,Sometimes pressing a key did not take me to the next screen
jaguar,p0kqwtb8qfg,181,355241,mountain,0,32,male,To test the relationship between how well a word fits into a group and how well you can remember it,Sometimes pressing a key did not take me to the next screen
jaguar,p0kqwtb8qfg,182,357098,window,1,32,male,To test the relationship between how well a word fits into a group and how well you can remember it,Sometimes pressing a key did not take me to the next screen
jaguar,p0kqwtb8qfg,183,358912,ill,3,32,male,To test the relationship between how well a word fits into a group and how well you can remember it,Sometimes pressing a key did not take me to the next screen
jaguar,p0kqwtb8qfg,184,360428,cat,3,32,male,To test the relationship between how well a word fits into a group and how well you can remember it,Sometimes pressing a key did not take me to the next screen
jaguar,p0kqwtb8qfg,185,362431,void,0,32,male,To test the relationship between how well a word fits into a group and how well you can remember it,Sometimes pressing a key did not take me to the next screen
jaguar,p0kqwtb8qfg,186,363738,balance,0,32,male,To test the relationship between how well a word fits into a group and how well you can remember it,Sometimes pressing a key did not take me to the next screen
jaguar,p0kqwtb8qfg,187,366446,winter,2,32,male,To test the relationship between how well a word fits into a group and how well you can remember it,Sometimes pressing a key did not take me to the next screen
jaguar,p0kqwtb8qfg,188,369295,fight,3,32,male,To test the relationship between how well a word fits into a group and how well you can remember it,Sometimes pressing a key did not take me to the next screen
jaguar,p0kqwtb8qfg,189,370475,chair,3,32,male,To test the relationship between how well a word fits into a group and how well you can remember it,Sometimes pressing a key did not take me to the next screen
jaguar,p0kqwtb8qfg,190,371362,blue,3,32,male,To test the relationship between how well a word fits into a group and how well you can remember it,Sometimes pressing a key did not take me to the next screen
jaguar,p0kqwtb8qfg,191,372326,freeze,3,32,male,To test the relationship between how well a word fits into a group and how well you can remember it,Sometimes pressing a key did not take me to the next screen
jaguar,p0kqwtb8qfg,192,374509,attention,0,32,male,To test the relationship between how well a word fits into a group and how well you can remember it,Sometimes pressing a key did not take me to the next screen
jaguar,p0kqwtb8qfg,193,376209,laptop,0,32,male,To test the relationship between how well a word fits into a group and how well you can remember it,Sometimes pressing a key did not take me to the next screen
jaguar,p0kqwtb8qfg,194,377365,camera,0,32,male,To test the relationship between how well a word fits into a group and how well you can remember it,Sometimes pressing a key did not take me to the next screen
jaguar,p0kqwtb8qfg,195,379918,conflict,2,32,male,To test the relationship between how well a word fits into a group and how well you can remember it,Sometimes pressing a key did not take me to the next screen
eagle,p3awyfzqtp5,154,278777,anger,3,21,female,Memory test to see if seeing a word/being asked about it will make it more likely for false recall.,No
eagle,p3awyfzqtp5,155,281673,attention,0,21,female,Memory test to see if seeing a word/being asked about it will make it more likely for false recall.,No
eagle,p3awyfzqtp5,156,285274,charred,2,21,female,Memory test to see if seeing a word/being asked about it will make it more likely for false recall.,No
eagle,p3awyfzqtp5,157,287922,recliner,3,21,female,Memory test to see if seeing a word/being asked about it will make it more likely for false recall.,No
eagle,p3awyfzqtp5,158,290772,balance,1,21,female,Memory test to see if seeing a word/being asked about it will make it more likely for false recall.,No
eagle,p3awyfzqtp5,159,294190,oven,1,21,female,Memory test to see if seeing a word/being asked about it will make it more likely for false recall.,No
eagle,p3awyfzqtp5,160,297889,shade,1,21,female,Memory test to see if seeing a word/being asked about it will make it more likely for false recall.,No
eagle,p3awyfzqtp5,161,299756,black,1,21,female,Memory test to see if seeing a word/being asked about it will make it more likely for false recall.,No
eagle,p3awyfzqtp5,162,301822,balloon,0,21,female,Memory test to see if seeing a word/being asked about it will make it more likely for false recall.,No
eagle,p3awyfzqtp5,163,304105,void,0,21,female,Memory test to see if seeing a word/being asked about it will make it more likely for false recall.,No
eagle,p3awyfzqtp5,164,305921,dark,1,21,female,Memory test to see if seeing a word/being asked about it will make it more likely for false recall.,No
eagle,p3awyfzqtp5,165,307773,jelly,1,21,female,Memory test to see if seeing a word/being asked about it will make it more likely for false recall.,No
eagle,p3awyfzqtp5,166,310487,elephant,0,21,female,Memory test to see if seeing a word/being asked about it will make it more likely for false recall.,No
eagle,p3awyfzqtp5,167,316239,doctor,1,21,female,Memory test to see if seeing a word/being asked about it will make it more likely for false recall.,No
eagle,p3awyfzqtp5,168,318920,frame,1,21,female,Memory test to see if seeing a word/being asked about it will make it more likely for false recall.,No
eagle,p3awyfzqtp5,169,321738,ice,2,21,female,Memory test to see if seeing a word/being asked about it will make it more likely for false recall.,No
eagle,p3awyfzqtp5,170,325955,procedure,1,21,female,Memory test to see if seeing a word/being asked about it will make it more likely for false recall.,No
eagle,p3awyfzqtp5,171,328855,clock,2,21,female,Memory test to see if seeing a word/being asked about it will make it more likely for false recall.,No
eagle,p3awyfzqtp5,172,331488,bread,2,21,female,Memory test to see if seeing a word/being asked about it will make it more likely for false recall.,No
eagle,p3awyfzqtp5,173,333686,ill,3,21,female,Memory test to see if seeing a word/being asked about it will make it more likely for false recall.,No
eagle,p3awyfzqtp5,174,335522,basket,1,21,female,Memory test to see if seeing a word/being asked about it will make it more likely for false recall.,No
eagle,p3awyfzqtp5,175,341189,guitar,1,21,female,Memory test to see if seeing a word/being asked about it will make it more likely for false recall.,No
eagle,p3awyfzqtp5,176,344172,rye,3,21,female,Memory test to see if seeing a word/being asked about it will make it more likely for false recall.,No
eagle,p3awyfzqtp5,177,347172,laptop,1,21,female,Memory test to see if seeing a word/being asked about it will make it more likely for false recall.,No
eagle,p3awyfzqtp5,178,350706,seat,2,21,female,Memory test to see if seeing a word/being asked about it will make it more likely for false recall.,No
eagle,p3awyfzqtp5,179,352672,hatred,3,21,female,Memory test to see if seeing a word/being asked about it will make it more likely for false recall.,No
eagle,p3awyfzqtp5,180,357688,window,2,21,female,Memory test to see if seeing a word/being asked about it will make it more likely for false recall.,No
eagle,p3awyfzqtp5,181,363222,drift,1,21,female,Memory test to see if seeing a word/being asked about it will make it more likely for false recall.,No
eagle,p3awyfzqtp5,182,365055,temper,2,21,female,Memory test to see if seeing a word/being asked about it will make it more likely for false recall.,No
eagle,p3awyfzqtp5,183,367155,cold,2,21,female,Memory test to see if seeing a word/being asked about it will make it more likely for false recall.,No
eagle,p3awyfzqtp5,184,369055,lighthouse,0,21,female,Memory test to see if seeing a word/being asked about it will make it more likely for false recall.,No
eagle,p3awyfzqtp5,185,371787,curtain,2,21,female,Memory test to see if seeing a word/being asked about it will make it more likely for false recall.,No
eagle,p3awyfzqtp5,186,373954,chilly,1,21,female,Memory test to see if seeing a word/being asked about it will make it more likely for false recall.,No
eagle,p3awyfzqtp5,187,375670,conflict,1,21,female,Memory test to see if seeing a word/being asked about it will make it more likely for false recall.,No
eagle,p3awyfzqtp5,188,378838,mountain,2,21,female,Memory test to see if seeing a word/being asked about it will make it more likely for false recall.,No
eagle,p3awyfzqtp5,189,380454,book,1,21,female,Memory test to see if seeing a word/being asked about it will make it more likely for false recall.,No
eagle,p3awyfzqtp5,190,382355,river,1,21,female,Memory test to see if seeing a word/being asked about it will make it more likely for false recall.,No
eagle,p3awyfzqtp5,191,384070,noise,1,21,female,Memory test to see if seeing a word/being asked about it will make it more likely for false recall.,No
eagle,p3awyfzqtp5,192,386620,chair,3,21,female,Memory test to see if seeing a word/being asked about it will make it more likely for false recall.,No
eagle,p3awyfzqtp5,193,388404,camera,1,21,female,Memory test to see if seeing a word/being asked about it will make it more likely for false recall.,No
eagle,p3awyfzqtp5,194,394785,sick,2,21,female,Memory test to see if seeing a word/being asked about it will make it more likely for false recall.,No
eagle,p3awyfzqtp5,195,396920,planet,1,21,female,Memory test to see if seeing a word/being asked about it will make it more likely for false recall.,No
gorilla,p61ookep616,154,231602,book,0,20,Female,To test whether broad concepts affect people's memory of what words are recalled,No
gorilla,p61ookep616,155,235286,basket,0,20,Female,To test whether broad concepts affect people's memory of what words are recalled,No
gorilla,p61ookep616,156,240612,rye,3,20,Female,To test whether broad concepts affect people's memory of what words are recalled,No
gorilla,p61ookep616,157,247949,bread,0,20,Female,To test whether broad concepts affect people's memory of what words are recalled,No
gorilla,p61ookep616,158,251217,planet,0,20,Female,To test whether broad concepts affect people's memory of what words are recalled,No
gorilla,p61ookep616,159,254359,chair,3,20,Female,To test whether broad concepts affect people's memory of what words are recalled,No
gorilla,p61ookep616,160,257848,elephant,0,20,Female,To test whether broad concepts affect people's memory of what words are recalled,No
gorilla,p61ookep616,161,266913,blue,2,20,Female,To test whether broad concepts affect people's memory of what words are recalled,No
gorilla,p61ookep616,162,270788,void,0,20,Female,To test whether broad concepts affect people's memory of what words are recalled,No
gorilla,p61ookep616,163,273333,frame,0,20,Female,To test whether broad concepts affect people's memory of what words are recalled,No
gorilla,p61ookep616,164,276584,couch,3,20,Female,To test whether broad concepts affect people's memory of what words are recalled,No
gorilla,p61ookep616,165,283697,conflict,0,20,Female,To test whether broad concepts affect people's memory of what words are recalled,No
gorilla,p61ookep616,166,291159,chilly,0,20,Female,To test whether broad concepts affect people's memory of what words are recalled,No
gorilla,p61ookep616,167,294576,oven,0,20,Female,To test whether broad concepts affect people's memory of what words are recalled,No
gorilla,p61ookep616,168,296929,balloon,0,20,Female,To test whether broad concepts affect people's memory of what words are recalled,No
gorilla,p61ookep616,169,304933,anger,0,20,Female,To test whether broad concepts affect people's memory of what words are recalled,No
gorilla,p61ookep616,170,307510,noise,0,20,Female,To test whether broad concepts affect people's memory of what words are recalled,No
gorilla,p61ookep616,171,311049,mountain,0,20,Female,To test whether broad concepts affect people's memory of what words are recalled,No
gorilla,p61ookep616,172,314412,attention,0,20,Female,To test whether broad concepts affect people's memory of what words are recalled,No
gorilla,p61ookep616,173,317996,lighthouse,0,20,Female,To test whether broad concepts affect people's memory of what words are recalled,No
gorilla,p61ookep616,174,320335,curtain,0,20,Female,To test whether broad concepts affect people's memory of what words are recalled,No
gorilla,p61ookep616,175,324717,cold,0,20,Female,To test whether broad concepts affect people's memory of what words are recalled,No
gorilla,p61ookep616,176,328236,wood,1,20,Female,To test whether broad concepts affect people's memory of what words are recalled,No
gorilla,p61ookep616,177,331813,dentist,3,20,Female,To test whether broad concepts affect people's memory of what words are recalled,No
gorilla,p61ookep616,178,335089,drift,0,20,Female,To test whether broad concepts affect people's memory of what words are recalled,No
gorilla,p61ookep616,179,339671,dark,3,20,Female,To test whether broad concepts affect people's memory of what words are recalled,No
gorilla,p61ookep616,180,344961,camera,0,20,Female,To test whether broad concepts affect people's memory of what words are recalled,No
gorilla,p61ookep616,181,347740,laptop,0,20,Female,To test whether broad concepts affect people's memory of what words are recalled,No
gorilla,p61ookep616,182,352431,black,1,20,Female,To test whether broad concepts affect people's memory of what words are recalled,No
gorilla,p61ookep616,183,356046,procedure,0,20,Female,To test whether broad concepts affect people's memory of what words are recalled,No
gorilla,p61ookep616,184,359071,river,0,20,Female,To test whether broad concepts affect people's memory of what words are recalled,No
gorilla,p61ookep616,185,362616,window,2,20,Female,To test whether broad concepts affect people's memory of what words are recalled,No
gorilla,p61ookep616,186,366039,balance,0,20,Female,To test whether broad concepts affect people's memory of what words are recalled,No
gorilla,p61ookep616,187,369885,clock,1,20,Female,To test whether broad concepts affect people's memory of what words are recalled,No
gorilla,p61ookep616,188,373791,physician,3,20,Female,To test whether broad concepts affect people's memory of what words are recalled,No
gorilla,p61ookep616,189,378562,hatred,2,20,Female,To test whether broad concepts affect people's memory of what words are recalled,No
gorilla,p61ookep616,190,382184,weather,3,20,Female,To test whether broad concepts affect people's memory of what words are recalled,No
gorilla,p61ookep616,191,385105,guitar,1,20,Female,To test whether broad concepts affect people's memory of what words are recalled,No
gorilla,p61ookep616,192,391453,doctor,3,20,Female,To test whether broad concepts affect people's memory of what words are recalled,No
gorilla,p61ookep616,193,395184,food,3,20,Female,To test whether broad concepts affect people's memory of what words are recalled,No
gorilla,p61ookep616,194,397644,fight,3,20,Female,To test whether broad concepts affect people's memory of what words are recalled,No
gorilla,p61ookep616,195,402196,shade,1,20,Female,To test whether broad concepts affect people's memory of what words are recalled,No
moose,parct2ymsor,154,218708,weather,2,21,Male,I think the purpose was to see how confident people are in their memory when given words that belong in similar categories.,No
moose,parct2ymsor,155,221734,anger,1,21,Male,I think the purpose was to see how confident people are in their memory when given words that belong in similar categories.,No
moose,parct2ymsor,156,226270,office,3,21,Male,I think the purpose was to see how confident people are in their memory when given words that belong in similar categories.,No
moose,parct2ymsor,157,228801,rye,3,21,Male,I think the purpose was to see how confident people are in their memory when given words that belong in similar categories.,No
moose,parct2ymsor,158,231448,desk,2,21,Male,I think the purpose was to see how confident people are in their memory when given words that belong in similar categories.,No
moose,parct2ymsor,159,233303,couch,3,21,Male,I think the purpose was to see how confident people are in their memory when given words that belong in similar categories.,No
moose,parct2ymsor,160,235902,procedure,1,21,Male,I think the purpose was to see how confident people are in their memory when given words that belong in similar categories.,No
moose,parct2ymsor,161,238395,attention,1,21,Male,I think the purpose was to see how confident people are in their memory when given words that belong in similar categories.,No
moose,parct2ymsor,162,240891,lighthouse,0,21,Male,I think the purpose was to see how confident people are in their memory when given words that belong in similar categories.,No
moose,parct2ymsor,163,243381,frame,2,21,Male,I think the purpose was to see how confident people are in their memory when given words that belong in similar categories.,No
moose,parct2ymsor,164,245485,window,2,21,Male,I think the purpose was to see how confident people are in their memory when given words that belong in similar categories.,No
moose,parct2ymsor,165,247360,planet,1,21,Male,I think the purpose was to see how confident people are in their memory when given words that belong in similar categories.,No
moose,parct2ymsor,166,250378,camera,1,21,Male,I think the purpose was to see how confident people are in their memory when given words that belong in similar categories.,No
moose,parct2ymsor,167,252137,curtain,2,21,Male,I think the purpose was to see how confident people are in their memory when given words that belong in similar categories.,No
moose,parct2ymsor,168,253689,charred,3,21,Male,I think the purpose was to see how confident people are in their memory when given words that belong in similar categories.,No
moose,parct2ymsor,169,255316,food,2,21,Male,I think the purpose was to see how confident people are in their memory when given words that belong in similar categories.,No
moose,parct2ymsor,170,257943,black,1,21,Male,I think the purpose was to see how confident people are in their memory when given words that belong in similar categories.,No
moose,parct2ymsor,171,259465,book,1,21,Male,I think the purpose was to see how confident people are in their memory when given words that belong in similar categories.,No
moose,parct2ymsor,172,261265,elephant,1,21,Male,I think the purpose was to see how confident people are in their memory when given words that belong in similar categories.,No
moose,parct2ymsor,173,263444,shade,1,21,Male,I think the purpose was to see how confident people are in their memory when given words that belong in similar categories.,No
moose,parct2ymsor,174,265451,fight,3,21,Male,I think the purpose was to see how confident people are in their memory when given words that belong in similar categories.,No
moose,parct2ymsor,175,268269,drift,1,21,Male,I think the purpose was to see how confident people are in their memory when given words that belong in similar categories.,No
moose,parct2ymsor,176,270630,balloon,0,21,Male,I think the purpose was to see how confident people are in their memory when given words that belong in similar categories.,No
moose,parct2ymsor,177,272191,basket,1,21,Male,I think the purpose was to see how confident people are in their memory when given words that belong in similar categories.,No
moose,parct2ymsor,178,274645,doctor,2,21,Male,I think the purpose was to see how confident people are in their memory when given words that belong in similar categories.,No
moose,parct2ymsor,179,276701,conflict,1,21,Male,I think the purpose was to see how confident people are in their memory when given words that belong in similar categories.,No
moose,parct2ymsor,180,278501,laptop,2,21,Male,I think the purpose was to see how confident people are in their memory when given words that belong in similar categories.,No
moose,parct2ymsor,181,281480,mountain,1,21,Male,I think the purpose was to see how confident people are in their memory when given words that belong in similar categories.,No
moose,parct2ymsor,182,283706,cold,2,21,Male,I think the purpose was to see how confident people are in their memory when given words that belong in similar categories.,No
moose,parct2ymsor,183,286410,river,0,21,Male,I think the purpose was to see how confident people are in their memory when given words that belong in similar categories.,No
moose,parct2ymsor,184,288141,clock,1,21,Male,I think the purpose was to see how confident people are in their memory when given words that belong in similar categories.,No
moose,parct2ymsor,185,289960,chilly,3,21,Male,I think the purpose was to see how confident people are in their memory when given words that belong in similar categories.,No
moose,parct2ymsor,186,293917,guitar,1,21,Male,I think the purpose was to see how confident people are in their memory when given words that belong in similar categories.,No
moose,parct2ymsor,187,295660,noise,1,21,Male,I think the purpose was to see how confident people are in their memory when given words that belong in similar categories.,No
moose,parct2ymsor,188,297868,dark,2,21,Male,I think the purpose was to see how confident people are in their memory when given words that belong in similar categories.,No
moose,parct2ymsor,189,299496,void,1,21,Male,I think the purpose was to see how confident people are in their memory when given words that belong in similar categories.,No
moose,parct2ymsor,190,301467,balance,2,21,Male,I think the purpose was to see how confident people are in their memory when given words that belong in similar categories.,No
moose,parct2ymsor,191,303122,chair,3,21,Male,I think the purpose was to see how confident people are in their memory when given words that belong in similar categories.,No
moose,parct2ymsor,192,304730,oven,1,21,Male,I think the purpose was to see how confident people are in their memory when given words that belong in similar categories.,No
moose,parct2ymsor,193,306548,bread,2,21,Male,I think the purpose was to see how confident people are in their memory when given words that belong in similar categories.,No
moose,parct2ymsor,194,310564,hatred,1,21,Male,I think the purpose was to see how confident people are in their memory when given words that belong in similar categories.,No
moose,parct2ymsor,195,312753,sick,2,21,Male,I think the purpose was to see how confident people are in their memory when given words that belong in similar categories.,No
turtle,pb25qkhc1hd,154,233006,doctor,1,20,female,to see if we will incorrectly remember a word as being in a list if it fits the context of it,no
turtle,pb25qkhc1hd,155,237483,frigid,3,20,female,to see if we will incorrectly remember a word as being in a list if it fits the context of it,no
turtle,pb25qkhc1hd,156,241585,cold,2,20,female,to see if we will incorrectly remember a word as being in a list if it fits the context of it,no
turtle,pb25qkhc1hd,157,244604,black,3,20,female,to see if we will incorrectly remember a word as being in a list if it fits the context of it,no
turtle,pb25qkhc1hd,158,247755,attention,1,20,female,to see if we will incorrectly remember a word as being in a list if it fits the context of it,no
turtle,pb25qkhc1hd,159,251273,elephant,3,20,female,to see if we will incorrectly remember a word as being in a list if it fits the context of it,no
turtle,pb25qkhc1hd,160,254582,drift,1,20,female,to see if we will incorrectly remember a word as being in a list if it fits the context of it,no
turtle,pb25qkhc1hd,161,257785,noise,1,20,female,to see if we will incorrectly remember a word as being in a list if it fits the context of it,no
turtle,pb25qkhc1hd,162,260933,table,2,20,female,to see if we will incorrectly remember a word as being in a list if it fits the context of it,no
turtle,pb25qkhc1hd,163,262989,laptop,1,20,female,to see if we will incorrectly remember a word as being in a list if it fits the context of it,no
turtle,pb25qkhc1hd,164,265052,book,1,20,female,to see if we will incorrectly remember a word as being in a list if it fits the context of it,no
turtle,pb25qkhc1hd,165,266909,window,1,20,female,to see if we will incorrectly remember a word as being in a list if it fits the context of it,no
turtle,pb25qkhc1hd,166,268692,camera,1,20,female,to see if we will incorrectly remember a word as being in a list if it fits the context of it,no
turtle,pb25qkhc1hd,167,271408,river,1,20,female,to see if we will incorrectly remember a word as being in a list if it fits the context of it,no
turtle,pb25qkhc1hd,168,273701,chair,3,20,female,to see if we will incorrectly remember a word as being in a list if it fits the context of it,no
turtle,pb25qkhc1hd,169,275951,sandwich,1,20,female,to see if we will incorrectly remember a word as being in a list if it fits the context of it,no
turtle,pb25qkhc1hd,170,277846,anger,3,20,female,to see if we will incorrectly remember a word as being in a list if it fits the context of it,no
turtle,pb25qkhc1hd,171,279541,balloon,1,20,female,to see if we will incorrectly remember a word as being in a list if it fits the context of it,no
turtle,pb25qkhc1hd,172,281757,basket,2,20,female,to see if we will incorrectly remember a word as being in a list if it fits the context of it,no
turtle,pb25qkhc1hd,173,283549,curtain,1,20,female,to see if we will incorrectly remember a word as being in a list if it fits the context of it,no
turtle,pb25qkhc1hd,174,285379,slice,1,20,female,to see if we will incorrectly remember a word as being in a list if it fits the context of it,no
turtle,pb25qkhc1hd,175,287655,mean,3,20,female,to see if we will incorrectly remember a word as being in a list if it fits the context of it,no
turtle,pb25qkhc1hd,176,290271,recliner,3,20,female,to see if we will incorrectly remember a word as being in a list if it fits the context of it,no
turtle,pb25qkhc1hd,177,293179,balance,1,20,female,to see if we will incorrectly remember a word as being in a list if it fits the context of it,no
turtle,pb25qkhc1hd,178,295234,shade,1,20,female,to see if we will incorrectly remember a word as being in a list if it fits the context of it,no
turtle,pb25qkhc1hd,179,297194,planet,1,20,female,to see if we will incorrectly remember a word as being in a list if it fits the context of it,no
turtle,pb25qkhc1hd,180,299177,funeral,3,20,female,to see if we will incorrectly remember a word as being in a list if it fits the context of it,no
turtle,pb25qkhc1hd,181,301127,clock,1,20,female,to see if we will incorrectly remember a word as being in a list if it fits the context of it,no
turtle,pb25qkhc1hd,182,303818,ice,2,20,female,to see if we will incorrectly remember a word as being in a list if it fits the context of it,no
turtle,pb25qkhc1hd,183,306004,stethoscope,3,20,female,to see if we will incorrectly remember a word as being in a list if it fits the context of it,no
turtle,pb25qkhc1hd,184,312323,oven,1,20,female,to see if we will incorrectly remember a word as being in a list if it fits the context of it,no
turtle,pb25qkhc1hd,185,314129,mountain,1,20,female,to see if we will incorrectly remember a word as being in a list if it fits the context of it,no
turtle,pb25qkhc1hd,186,316185,void,1,20,female,to see if we will incorrectly remember a word as being in a list if it fits the context of it,no
turtle,pb25qkhc1hd,187,318674,conflict,3,20,female,to see if we will incorrectly remember a word as being in a list if it fits the context of it,no
turtle,pb25qkhc1hd,188,323845,frame,2,20,female,to see if we will incorrectly remember a word as being in a list if it fits the context of it,no
turtle,pb25qkhc1hd,189,326174,guitar,1,20,female,to see if we will incorrectly remember a word as being in a list if it fits the context of it,no
turtle,pb25qkhc1hd,190,329268,ink,3,20,female,to see if we will incorrectly remember a word as being in a list if it fits the context of it,no
turtle,pb25qkhc1hd,191,332704,office,2,20,female,to see if we will incorrectly remember a word as being in a list if it fits the context of it,no
turtle,pb25qkhc1hd,192,334776,lighthouse,0,20,female,to see if we will incorrectly remember a word as being in a list if it fits the context of it,no
turtle,pb25qkhc1hd,193,337145,procedure,1,20,female,to see if we will incorrectly remember a word as being in a list if it fits the context of it,no
turtle,pb25qkhc1hd,194,340012,bread,1,20,female,to see if we will incorrectly remember a word as being in a list if it fits the context of it,no
turtle,pb25qkhc1hd,195,342355,wrath,3,20,female,to see if we will incorrectly remember a word as being in a list if it fits the context of it,no
2341,pbj1ke6etey,154,234861,doctor,3,25,female,audio recognition,NA
2341,pbj1ke6etey,155,238340,river,3,25,female,audio recognition,NA
2341,pbj1ke6etey,156,241414,book,1,25,female,audio recognition,NA
2341,pbj1ke6etey,157,243668,window,3,25,female,audio recognition,NA
2341,pbj1ke6etey,158,245969,guitar,3,25,female,audio recognition,NA
2341,pbj1ke6etey,159,250869,funeral,3,25,female,audio recognition,NA
2341,pbj1ke6etey,160,253111,procedure,1,25,female,audio recognition,NA
2341,pbj1ke6etey,161,256161,attention,0,25,female,audio recognition,NA
2341,pbj1ke6etey,162,259353,oven,0,25,female,audio recognition,NA
2341,pbj1ke6etey,163,262614,void,1,25,female,audio recognition,NA
2341,pbj1ke6etey,164,264891,anger,2,25,female,audio recognition,NA
2341,pbj1ke6etey,165,267469,bread,2,25,female,audio recognition,NA
2341,pbj1ke6etey,166,269428,balloon,2,25,female,audio recognition,NA
2341,pbj1ke6etey,167,272783,laptop,0,25,female,audio recognition,NA
2341,pbj1ke6etey,168,275231,heat,1,25,female,audio recognition,NA
2341,pbj1ke6etey,169,281152,sick,1,25,female,audio recognition,NA
2341,pbj1ke6etey,170,284341,mountain,1,25,female,audio recognition,NA
2341,pbj1ke6etey,171,286854,shade,2,25,female,audio recognition,NA
2341,pbj1ke6etey,172,289554,elephant,1,25,female,audio recognition,NA
2341,pbj1ke6etey,173,291626,hatred,2,25,female,audio recognition,NA
2341,pbj1ke6etey,174,293474,basket,1,25,female,audio recognition,NA
2341,pbj1ke6etey,175,295264,seat,2,25,female,audio recognition,NA
2341,pbj1ke6etey,176,297811,lighthouse,0,25,female,audio recognition,NA
2341,pbj1ke6etey,177,300506,grief,2,25,female,audio recognition,NA
2341,pbj1ke6etey,178,302211,sandwich,3,25,female,audio recognition,NA
2341,pbj1ke6etey,179,304882,black,2,25,female,audio recognition,NA
2341,pbj1ke6etey,180,306707,hate,3,25,female,audio recognition,NA
2341,pbj1ke6etey,181,308646,winter,1,25,female,audio recognition,NA
2341,pbj1ke6etey,182,312178,curtain,3,25,female,audio recognition,NA
2341,pbj1ke6etey,183,316737,stool,0,25,female,audio recognition,NA
2341,pbj1ke6etey,184,319619,balance,1,25,female,audio recognition,NA
2341,pbj1ke6etey,185,323222,planet,1,25,female,audio recognition,NA
2341,pbj1ke6etey,186,325464,chair,1,25,female,audio recognition,NA
2341,pbj1ke6etey,187,327949,physician,1,25,female,audio recognition,NA
2341,pbj1ke6etey,188,330126,clock,1,25,female,audio recognition,NA
2341,pbj1ke6etey,189,332307,camera,1,25,female,audio recognition,NA
2341,pbj1ke6etey,190,336721,drift,0,25,female,audio recognition,NA
2341,pbj1ke6etey,191,339668,frame,2,25,female,audio recognition,NA
2341,pbj1ke6etey,192,346419,jelly,2,25,female,audio recognition,NA
2341,pbj1ke6etey,193,351432,conflict,2,25,female,audio recognition,NA
2341,pbj1ke6etey,194,353458,cold,1,25,female,audio recognition,NA
2341,pbj1ke6etey,195,355856,noise,1,25,female,audio recognition,NA
penguin,pbomzsx5uv0,154,278554,curtain,0,19,Male,"To test human memory in specific topics, where each topic was a different list.",
penguin,pbomzsx5uv0,155,282956,shade,0,19,Male,"To test human memory in specific topics, where each topic was a different list.",
penguin,pbomzsx5uv0,156,285785,chair,3,19,Male,"To test human memory in specific topics, where each topic was a different list.",
penguin,pbomzsx5uv0,157,288282,laptop,0,19,Male,"To test human memory in specific topics, where each topic was a different list.",
penguin,pbomzsx5uv0,158,291661,bread,3,19,Male,"To test human memory in specific topics, where each topic was a different list.",
penguin,pbomzsx5uv0,159,293676,attention,1,19,Male,"To test human memory in specific topics, where each topic was a different list.",
penguin,pbomzsx5uv0,160,295625,patient,2,19,Male,"To test human memory in specific topics, where each topic was a different list.",
penguin,pbomzsx5uv0,161,297494,stool,3,19,Male,"To test human memory in specific topics, where each topic was a different list.",
penguin,pbomzsx5uv0,162,300625,mountain,1,19,Male,"To test human memory in specific topics, where each topic was a different list.",
penguin,pbomzsx5uv0,163,302370,drift,1,19,Male,"To test human memory in specific topics, where each topic was a different list.",
penguin,pbomzsx5uv0,164,304665,window,0,19,Male,"To test human memory in specific topics, where each topic was a different list.",
penguin,pbomzsx5uv0,165,306730,void,0,19,Male,"To test human memory in specific topics, where each topic was a different list.",
penguin,pbomzsx5uv0,166,309187,heat,3,19,Male,"To test human memory in specific topics, where each topic was a different list.",
penguin,pbomzsx5uv0,167,311170,clock,1,19,Male,"To test human memory in specific topics, where each topic was a different list.",
penguin,pbomzsx5uv0,168,315397,desk,3,19,Male,"To test human memory in specific topics, where each topic was a different list.",
penguin,pbomzsx5uv0,169,316985,sandwich,3,19,Male,"To test human memory in specific topics, where each topic was a different list.",
penguin,pbomzsx5uv0,170,319045,doctor,3,19,Male,"To test human memory in specific topics, where each topic was a different list.",
penguin,pbomzsx5uv0,171,320953,planet,1,19,Male,"To test human memory in specific topics, where each topic was a different list.",
penguin,pbomzsx5uv0,172,323851,noise,0,19,Male,"To test human memory in specific topics, where each topic was a different list.",
penguin,pbomzsx5uv0,173,330900,guitar,0,19,Male,"To test human memory in specific topics, where each topic was a different list.",
penguin,pbomzsx5uv0,174,332621,balloon,0,19,Male,"To test human memory in specific topics, where each topic was a different list.",
penguin,pbomzsx5uv0,175,334658,grief,3,19,Male,"To test human memory in specific topics, where each topic was a different list.",
penguin,pbomzsx5uv0,176,338498,book,2,19,Male,"To test human memory in specific topics, where each topic was a different list.",
penguin,pbomzsx5uv0,177,340435,lighthouse,0,19,Male,"To test human memory in specific topics, where each topic was a different list.",
penguin,pbomzsx5uv0,178,341957,elephant,0,19,Male,"To test human memory in specific topics, where each topic was a different list.",
penguin,pbomzsx5uv0,179,343872,frigid,3,19,Male,"To test human memory in specific topics, where each topic was a different list.",
penguin,pbomzsx5uv0,180,345758,blue,0,19,Male,"To test human memory in specific topics, where each topic was a different list.",
penguin,pbomzsx5uv0,181,347544,food,3,19,Male,"To test human memory in specific topics, where each topic was a different list.",
penguin,pbomzsx5uv0,182,350177,frame,1,19,Male,"To test human memory in specific topics, where each topic was a different list.",
penguin,pbomzsx5uv0,183,352212,river,1,19,Male,"To test human memory in specific topics, where each topic was a different list.",
penguin,pbomzsx5uv0,184,353963,conflict,2,19,Male,"To test human memory in specific topics, where each topic was a different list.",
penguin,pbomzsx5uv0,185,355437,procedure,2,19,Male,"To test human memory in specific topics, where each topic was a different list.",
penguin,pbomzsx5uv0,186,357693,basket,1,19,Male,"To test human memory in specific topics, where each topic was a different list.",
penguin,pbomzsx5uv0,187,359750,cold,3,19,Male,"To test human memory in specific topics, where each topic was a different list.",
penguin,pbomzsx5uv0,188,361456,camera,0,19,Male,"To test human memory in specific topics, where each topic was a different list.",
penguin,pbomzsx5uv0,189,363450,health,2,19,Male,"To test human memory in specific topics, where each topic was a different list.",
penguin,pbomzsx5uv0,190,365686,black,3,19,Male,"To test human memory in specific topics, where each topic was a different list.",
penguin,pbomzsx5uv0,191,370868,mad,3,19,Male,"To test human memory in specific topics, where each topic was a different list.",
penguin,pbomzsx5uv0,192,372725,balance,1,19,Male,"To test human memory in specific topics, where each topic was a different list.",
penguin,pbomzsx5uv0,193,374420,mean,1,19,Male,"To test human memory in specific topics, where each topic was a different list.",
penguin,pbomzsx5uv0,194,376079,oven,1,19,Male,"To test human memory in specific topics, where each topic was a different list.",
penguin,pbomzsx5uv0,195,379131,anger,3,19,Male,"To test human memory in specific topics, where each topic was a different list.",
pelican,pc76budfn8f,154,283253,sandwich,3,22,nb,categorization,no
pelican,pc76budfn8f,155,286747,elephant,0,22,nb,categorization,no
pelican,pc76budfn8f,156,289327,book,1,22,nb,categorization,no
pelican,pc76budfn8f,157,292647,balance,0,22,nb,categorization,no
pelican,pc76budfn8f,158,295697,attention,0,22,nb,categorization,no
pelican,pc76budfn8f,159,298815,curtain,0,22,nb,categorization,no
pelican,pc76budfn8f,160,301400,lighthouse,0,22,nb,categorization,no
pelican,pc76budfn8f,161,306715,bread,2,22,nb,categorization,no
pelican,pc76budfn8f,162,310879,chair,3,22,nb,categorization,no
pelican,pc76budfn8f,163,313613,drift,1,22,nb,categorization,no
pelican,pc76budfn8f,164,316375,camera,1,22,nb,categorization,no
pelican,pc76budfn8f,165,319207,guitar,0,22,nb,categorization,no
pelican,pc76budfn8f,166,321818,anger,3,22,nb,categorization,no
pelican,pc76budfn8f,167,324355,planet,0,22,nb,categorization,no
pelican,pc76budfn8f,168,327145,desk,3,22,nb,categorization,no
pelican,pc76budfn8f,169,331932,basket,0,22,nb,categorization,no
pelican,pc76budfn8f,170,334955,bottom,3,22,nb,categorization,no
pelican,pc76budfn8f,171,337894,hate,3,22,nb,categorization,no
pelican,pc76budfn8f,172,341262,black,2,22,nb,categorization,no
pelican,pc76budfn8f,173,343858,balloon,0,22,nb,categorization,no
pelican,pc76budfn8f,174,346230,eat,2,22,nb,categorization,no
pelican,pc76budfn8f,175,349047,health,3,22,nb,categorization,no
pelican,pc76budfn8f,176,351349,hot,2,22,nb,categorization,no
pelican,pc76budfn8f,177,354686,wrath,3,22,nb,categorization,no
pelican,pc76budfn8f,178,360006,shade,2,22,nb,categorization,no
pelican,pc76budfn8f,179,364106,procedure,1,22,nb,categorization,no
pelican,pc76budfn8f,180,366964,freeze,1,22,nb,categorization,no
pelican,pc76budfn8f,181,369997,stool,3,22,nb,categorization,no
pelican,pc76budfn8f,182,372341,conflict,2,22,nb,categorization,no
pelican,pc76budfn8f,183,376340,laptop,1,22,nb,categorization,no
pelican,pc76budfn8f,184,379930,dentist,3,22,nb,categorization,no
pelican,pc76budfn8f,185,384785,window,1,22,nb,categorization,no
pelican,pc76budfn8f,186,387676,mountain,0,22,nb,categorization,no
pelican,pc76budfn8f,187,391062,cold,2,22,nb,categorization,no
pelican,pc76budfn8f,188,393870,void,2,22,nb,categorization,no
pelican,pc76budfn8f,189,397530,noise,0,22,nb,categorization,no
pelican,pc76budfn8f,190,399951,death,2,22,nb,categorization,no
pelican,pc76budfn8f,191,402907,doctor,3,22,nb,categorization,no
pelican,pc76budfn8f,192,407268,river,0,22,nb,categorization,no
pelican,pc76budfn8f,193,411610,frame,0,22,nb,categorization,no
pelican,pc76budfn8f,194,415249,clock,0,22,nb,categorization,no
pelican,pc76budfn8f,195,420486,oven,0,22,nb,categorization,no
nm,pfovxblnuyb,154,215865,planet,0,11,aa,qq,"q,,"
nm,pfovxblnuyb,155,218847,bread,2,11,aa,qq,"q,,"
nm,pfovxblnuyb,156,221998,fear,2,11,aa,qq,"q,,"
nm,pfovxblnuyb,157,225297,mountain,1,11,aa,qq,"q,,"
nm,pfovxblnuyb,158,230131,balloon,2,11,aa,qq,"q,,"
nm,pfovxblnuyb,159,232564,camera,1,11,aa,qq,"q,,"
nm,pfovxblnuyb,160,235298,dentist,3,11,aa,qq,"q,,"
nm,pfovxblnuyb,161,237930,attention,1,11,aa,qq,"q,,"
nm,pfovxblnuyb,162,240047,black,2,11,aa,qq,"q,,"
nm,pfovxblnuyb,163,244014,lawyer,3,11,aa,qq,"q,,"
nm,pfovxblnuyb,164,247464,guitar,1,11,aa,qq,"q,,"
nm,pfovxblnuyb,165,250997,drift,1,11,aa,qq,"q,,"
nm,pfovxblnuyb,166,256763,procedure,1,11,aa,qq,"q,,"
nm,pfovxblnuyb,167,258280,conflict,2,11,aa,qq,"q,,"
nm,pfovxblnuyb,168,259780,white,2,11,aa,qq,"q,,"
nm,pfovxblnuyb,169,261263,frame,1,11,aa,qq,"q,,"
nm,pfovxblnuyb,170,263030,elephant,2,11,aa,qq,"q,,"
nm,pfovxblnuyb,171,264214,cushion,2,11,aa,qq,"q,,"
nm,pfovxblnuyb,172,266380,hate,1,11,aa,qq,"q,,"
nm,pfovxblnuyb,173,270597,ice,2,11,aa,qq,"q,,"
nm,pfovxblnuyb,174,272130,clock,2,11,aa,qq,"q,,"
nm,pfovxblnuyb,175,273547,doctor,2,11,aa,qq,"q,,"
nm,pfovxblnuyb,176,276463,anger,2,11,aa,qq,"q,,"
nm,pfovxblnuyb,177,279663,winter,2,11,aa,qq,"q,,"
nm,pfovxblnuyb,178,282330,recliner,1,11,aa,qq,"q,,"
nm,pfovxblnuyb,179,284513,window,1,11,aa,qq,"q,,"
nm,pfovxblnuyb,180,286113,curtain,2,11,aa,qq,"q,,"
nm,pfovxblnuyb,181,287730,basket,2,11,aa,qq,"q,,"
nm,pfovxblnuyb,182,289779,laptop,1,11,aa,qq,"q,,"
nm,pfovxblnuyb,183,292529,balance,2,11,aa,qq,"q,,"
nm,pfovxblnuyb,184,294563,noise,2,11,aa,qq,"q,,"
nm,pfovxblnuyb,185,296147,shade,2,11,aa,qq,"q,,"
nm,pfovxblnuyb,186,298497,bottom,1,11,aa,qq,"q,,"
nm,pfovxblnuyb,187,301663,dough,2,11,aa,qq,"q,,"
nm,pfovxblnuyb,188,304680,river,2,11,aa,qq,"q,,"
nm,pfovxblnuyb,189,306813,cold,1,11,aa,qq,"q,,"
nm,pfovxblnuyb,190,309080,book,1,11,aa,qq,"q,,"
nm,pfovxblnuyb,191,311529,chair,2,11,aa,qq,"q,,"
nm,pfovxblnuyb,192,313414,oven,1,11,aa,qq,"q,,"
nm,pfovxblnuyb,193,314880,jam,2,11,aa,qq,"q,,"
nm,pfovxblnuyb,194,317513,void,1,11,aa,qq,"q,,"
nm,pfovxblnuyb,195,319846,lighthouse,1,11,aa,qq,"q,,"
camel,pfpve9os644,154,348068,book,2,23,male,"words that sound alike when you hear them, you place them together in terms of temporal stages (i hear 'this' and 'that', i place them as old)",no.
camel,pfpve9os644,155,350382,cold,3,23,male,"words that sound alike when you hear them, you place them together in terms of temporal stages (i hear 'this' and 'that', i place them as old)",no.
camel,pfpve9os644,156,356718,lighthouse,2,23,male,"words that sound alike when you hear them, you place them together in terms of temporal stages (i hear 'this' and 'that', i place them as old)",no.
camel,pfpve9os644,157,359193,black,2,23,male,"words that sound alike when you hear them, you place them together in terms of temporal stages (i hear 'this' and 'that', i place them as old)",no.
camel,pfpve9os644,158,361905,river,2,23,male,"words that sound alike when you hear them, you place them together in terms of temporal stages (i hear 'this' and 'that', i place them as old)",no.
camel,pfpve9os644,159,364291,hatred,3,23,male,"words that sound alike when you hear them, you place them together in terms of temporal stages (i hear 'this' and 'that', i place them as old)",no.
camel,pfpve9os644,160,367508,bread,2,23,male,"words that sound alike when you hear them, you place them together in terms of temporal stages (i hear 'this' and 'that', i place them as old)",no.
camel,pfpve9os644,161,371271,balance,3,23,male,"words that sound alike when you hear them, you place them together in terms of temporal stages (i hear 'this' and 'that', i place them as old)",no.
camel,pfpve9os644,162,372891,balloon,2,23,male,"words that sound alike when you hear them, you place them together in terms of temporal stages (i hear 'this' and 'that', i place them as old)",no.
camel,pfpve9os644,163,375734,anger,3,23,male,"words that sound alike when you hear them, you place them together in terms of temporal stages (i hear 'this' and 'that', i place them as old)",no.
camel,pfpve9os644,164,378504,laptop,2,23,male,"words that sound alike when you hear them, you place them together in terms of temporal stages (i hear 'this' and 'that', i place them as old)",no.
camel,pfpve9os644,165,381727,camera,2,23,male,"words that sound alike when you hear them, you place them together in terms of temporal stages (i hear 'this' and 'that', i place them as old)",no.
camel,pfpve9os644,166,384220,basket,3,23,male,"words that sound alike when you hear them, you place them together in terms of temporal stages (i hear 'this' and 'that', i place them as old)",no.
camel,pfpve9os644,167,386868,rage,2,23,male,"words that sound alike when you hear them, you place them together in terms of temporal stages (i hear 'this' and 'that', i place them as old)",no.
camel,pfpve9os644,168,388822,clock,2,23,male,"words that sound alike when you hear them, you place them together in terms of temporal stages (i hear 'this' and 'that', i place them as old)",no.
camel,pfpve9os644,169,394024,shade,2,23,male,"words that sound alike when you hear them, you place them together in terms of temporal stages (i hear 'this' and 'that', i place them as old)",no.
camel,pfpve9os644,170,397119,medicine,0,23,male,"words that sound alike when you hear them, you place them together in terms of temporal stages (i hear 'this' and 'that', i place them as old)",no.
camel,pfpve9os644,171,398724,elephant,2,23,male,"words that sound alike when you hear them, you place them together in terms of temporal stages (i hear 'this' and 'that', i place them as old)",no.
camel,pfpve9os644,172,400841,sick,0,23,male,"words that sound alike when you hear them, you place them together in terms of temporal stages (i hear 'this' and 'that', i place them as old)",no.
camel,pfpve9os644,173,402519,procedure,1,23,male,"words that sound alike when you hear them, you place them together in terms of temporal stages (i hear 'this' and 'that', i place them as old)",no.
camel,pfpve9os644,174,407283,desk,1,23,male,"words that sound alike when you hear them, you place them together in terms of temporal stages (i hear 'this' and 'that', i place them as old)",no.
camel,pfpve9os644,175,409303,planet,2,23,male,"words that sound alike when you hear them, you place them together in terms of temporal stages (i hear 'this' and 'that', i place them as old)",no.
camel,pfpve9os644,176,411501,frame,2,23,male,"words that sound alike when you hear them, you place them together in terms of temporal stages (i hear 'this' and 'that', i place them as old)",no.
camel,pfpve9os644,177,415421,eat,3,23,male,"words that sound alike when you hear them, you place them together in terms of temporal stages (i hear 'this' and 'that', i place them as old)",no.
camel,pfpve9os644,178,418335,guitar,3,23,male,"words that sound alike when you hear them, you place them together in terms of temporal stages (i hear 'this' and 'that', i place them as old)",no.
camel,pfpve9os644,179,420751,oven,3,23,male,"words that sound alike when you hear them, you place them together in terms of temporal stages (i hear 'this' and 'that', i place them as old)",no.
camel,pfpve9os644,180,423313,freeze,3,23,male,"words that sound alike when you hear them, you place them together in terms of temporal stages (i hear 'this' and 'that', i place them as old)",no.
camel,pfpve9os644,181,425520,conflict,2,23,male,"words that sound alike when you hear them, you place them together in terms of temporal stages (i hear 'this' and 'that', i place them as old)",no.
camel,pfpve9os644,182,427509,charred,3,23,male,"words that sound alike when you hear them, you place them together in terms of temporal stages (i hear 'this' and 'that', i place them as old)",no.
camel,pfpve9os644,183,429222,curtain,1,23,male,"words that sound alike when you hear them, you place them together in terms of temporal stages (i hear 'this' and 'that', i place them as old)",no.
camel,pfpve9os644,184,430857,window,1,23,male,"words that sound alike when you hear them, you place them together in terms of temporal stages (i hear 'this' and 'that', i place them as old)",no.
camel,pfpve9os644,185,434500,white,2,23,male,"words that sound alike when you hear them, you place them together in terms of temporal stages (i hear 'this' and 'that', i place them as old)",no.
camel,pfpve9os644,186,437702,chair,2,23,male,"words that sound alike when you hear them, you place them together in terms of temporal stages (i hear 'this' and 'that', i place them as old)",no.
camel,pfpve9os644,187,439689,seat,2,23,male,"words that sound alike when you hear them, you place them together in terms of temporal stages (i hear 'this' and 'that', i place them as old)",no.
camel,pfpve9os644,188,442910,mountain,1,23,male,"words that sound alike when you hear them, you place them together in terms of temporal stages (i hear 'this' and 'that', i place them as old)",no.
camel,pfpve9os644,189,444561,drift,2,23,male,"words that sound alike when you hear them, you place them together in terms of temporal stages (i hear 'this' and 'that', i place them as old)",no.
camel,pfpve9os644,190,445994,doctor,0,23,male,"words that sound alike when you hear them, you place them together in terms of temporal stages (i hear 'this' and 'that', i place them as old)",no.
camel,pfpve9os644,191,449475,noise,2,23,male,"words that sound alike when you hear them, you place them together in terms of temporal stages (i hear 'this' and 'that', i place them as old)",no.
camel,pfpve9os644,192,452027,dough,2,23,male,"words that sound alike when you hear them, you place them together in terms of temporal stages (i hear 'this' and 'that', i place them as old)",no.
camel,pfpve9os644,193,455658,ice,3,23,male,"words that sound alike when you hear them, you place them together in terms of temporal stages (i hear 'this' and 'that', i place them as old)",no.
camel,pfpve9os644,194,458164,void,2,23,male,"words that sound alike when you hear them, you place them together in terms of temporal stages (i hear 'this' and 'that', i place them as old)",no.
camel,pfpve9os644,195,460809,attention,2,23,male,"words that sound alike when you hear them, you place them together in terms of temporal stages (i hear 'this' and 'that', i place them as old)",no.
Beaver,pfv4lc5tqk3,154,294911,curtain,2,22,Female,To try to remember the words shown and mentioned through active recall. ,N/A
Beaver,pfv4lc5tqk3,155,301143,doctor,3,22,Female,To try to remember the words shown and mentioned through active recall. ,N/A
Beaver,pfv4lc5tqk3,156,304332,noise,2,22,Female,To try to remember the words shown and mentioned through active recall. ,N/A
Beaver,pfv4lc5tqk3,157,311310,grief,0,22,Female,To try to remember the words shown and mentioned through active recall. ,N/A
Beaver,pfv4lc5tqk3,158,314671,anger,0,22,Female,To try to remember the words shown and mentioned through active recall. ,N/A
Beaver,pfv4lc5tqk3,159,320804,window,2,22,Female,To try to remember the words shown and mentioned through active recall. ,N/A
Beaver,pfv4lc5tqk3,160,323894,health,1,22,Female,To try to remember the words shown and mentioned through active recall. ,N/A
Beaver,pfv4lc5tqk3,161,326502,nurse,0,22,Female,To try to remember the words shown and mentioned through active recall. ,N/A
Beaver,pfv4lc5tqk3,162,328976,mountain,2,22,Female,To try to remember the words shown and mentioned through active recall. ,N/A
Beaver,pfv4lc5tqk3,163,332240,sit,0,22,Female,To try to remember the words shown and mentioned through active recall. ,N/A
Beaver,pfv4lc5tqk3,164,334987,void,3,22,Female,To try to remember the words shown and mentioned through active recall. ,N/A
Beaver,pfv4lc5tqk3,165,337876,wrath,1,22,Female,To try to remember the words shown and mentioned through active recall. ,N/A
Beaver,pfv4lc5tqk3,166,340414,blue,0,22,Female,To try to remember the words shown and mentioned through active recall. ,N/A
Beaver,pfv4lc5tqk3,167,342797,conflict,0,22,Female,To try to remember the words shown and mentioned through active recall. ,N/A
Beaver,pfv4lc5tqk3,168,345166,balloon,1,22,Female,To try to remember the words shown and mentioned through active recall. ,N/A
Beaver,pfv4lc5tqk3,169,348447,balance,2,22,Female,To try to remember the words shown and mentioned through active recall. ,N/A
Beaver,pfv4lc5tqk3,170,351391,chilly,0,22,Female,To try to remember the words shown and mentioned through active recall. ,N/A
Beaver,pfv4lc5tqk3,171,355481,elephant,2,22,Female,To try to remember the words shown and mentioned through active recall. ,N/A
Beaver,pfv4lc5tqk3,172,357551,guitar,2,22,Female,To try to remember the words shown and mentioned through active recall. ,N/A
Beaver,pfv4lc5tqk3,173,359587,chair,1,22,Female,To try to remember the words shown and mentioned through active recall. ,N/A
Beaver,pfv4lc5tqk3,174,362076,black,2,22,Female,To try to remember the words shown and mentioned through active recall. ,N/A
Beaver,pfv4lc5tqk3,175,367702,basket,1,22,Female,To try to remember the words shown and mentioned through active recall. ,N/A
Beaver,pfv4lc5tqk3,176,370197,oven,2,22,Female,To try to remember the words shown and mentioned through active recall. ,N/A
Beaver,pfv4lc5tqk3,177,372598,camera,2,22,Female,To try to remember the words shown and mentioned through active recall. ,N/A
Beaver,pfv4lc5tqk3,178,377063,lighthouse,3,22,Female,To try to remember the words shown and mentioned through active recall. ,N/A
Beaver,pfv4lc5tqk3,179,380456,laptop,2,22,Female,To try to remember the words shown and mentioned through active recall. ,N/A
Beaver,pfv4lc5tqk3,180,383450,frame,2,22,Female,To try to remember the words shown and mentioned through active recall. ,N/A
Beaver,pfv4lc5tqk3,181,386066,recliner,0,22,Female,To try to remember the words shown and mentioned through active recall. ,N/A
Beaver,pfv4lc5tqk3,182,388934,wet,0,22,Female,To try to remember the words shown and mentioned through active recall. ,N/A
Beaver,pfv4lc5tqk3,183,395371,book,1,22,Female,To try to remember the words shown and mentioned through active recall. ,N/A
Beaver,pfv4lc5tqk3,184,398977,sandwich,0,22,Female,To try to remember the words shown and mentioned through active recall. ,N/A
Beaver,pfv4lc5tqk3,185,402206,clock,3,22,Female,To try to remember the words shown and mentioned through active recall. ,N/A
Beaver,pfv4lc5tqk3,186,406512,bread,2,22,Female,To try to remember the words shown and mentioned through active recall. ,N/A
Beaver,pfv4lc5tqk3,187,409059,cold,1,22,Female,To try to remember the words shown and mentioned through active recall. ,N/A
Beaver,pfv4lc5tqk3,188,411510,river,1,22,Female,To try to remember the words shown and mentioned through active recall. ,N/A
Beaver,pfv4lc5tqk3,189,414119,attention,3,22,Female,To try to remember the words shown and mentioned through active recall. ,N/A
Beaver,pfv4lc5tqk3,190,416858,procedure,1,22,Female,To try to remember the words shown and mentioned through active recall. ,N/A
Beaver,pfv4lc5tqk3,191,420230,planet,3,22,Female,To try to remember the words shown and mentioned through active recall. ,N/A
Beaver,pfv4lc5tqk3,192,423078,flour,2,22,Female,To try to remember the words shown and mentioned through active recall. ,N/A
Beaver,pfv4lc5tqk3,193,425826,drift,2,22,Female,To try to remember the words shown and mentioned through active recall. ,N/A
Beaver,pfv4lc5tqk3,194,428274,hatred,0,22,Female,To try to remember the words shown and mentioned through active recall. ,N/A
Beaver,pfv4lc5tqk3,195,431274,shade,1,22,Female,To try to remember the words shown and mentioned through active recall. ,N/A
gazelle,pgqgaauvgox,154,217791,bread,2,22,m,false recall,no
gazelle,pgqgaauvgox,155,222420,noise,1,22,m,false recall,no
gazelle,pgqgaauvgox,156,226061,cat,2,22,m,false recall,no
gazelle,pgqgaauvgox,157,230260,wood,1,22,m,false recall,no
gazelle,pgqgaauvgox,158,232878,jelly,3,22,m,false recall,no
gazelle,pgqgaauvgox,159,235404,river,1,22,m,false recall,no
gazelle,pgqgaauvgox,160,239281,ire,3,22,m,false recall,no
gazelle,pgqgaauvgox,161,243166,bottom,3,22,m,false recall,no
gazelle,pgqgaauvgox,162,246521,elephant,0,22,m,false recall,no
gazelle,pgqgaauvgox,163,249337,conflict,1,22,m,false recall,no
gazelle,pgqgaauvgox,164,251705,flour,2,22,m,false recall,no
gazelle,pgqgaauvgox,165,253430,hot,3,22,m,false recall,no
gazelle,pgqgaauvgox,166,257338,book,1,22,m,false recall,no
gazelle,pgqgaauvgox,167,261736,procedure,1,22,m,false recall,no
gazelle,pgqgaauvgox,168,264309,sick,1,22,m,false recall,no
gazelle,pgqgaauvgox,169,268072,balloon,1,22,m,false recall,no
gazelle,pgqgaauvgox,170,271217,guitar,1,22,m,false recall,no
gazelle,pgqgaauvgox,171,272748,attention,1,22,m,false recall,no
gazelle,pgqgaauvgox,172,275424,black,0,22,m,false recall,no
gazelle,pgqgaauvgox,173,278017,lighthouse,1,22,m,false recall,no
gazelle,pgqgaauvgox,174,280011,oven,1,22,m,false recall,no
gazelle,pgqgaauvgox,175,284416,curtain,1,22,m,false recall,no
gazelle,pgqgaauvgox,176,288717,ice,3,22,m,false recall,no
gazelle,pgqgaauvgox,177,291423,drift,1,22,m,false recall,no
gazelle,pgqgaauvgox,178,292740,shade,1,22,m,false recall,no
gazelle,pgqgaauvgox,179,294311,camera,1,22,m,false recall,no
gazelle,pgqgaauvgox,180,295534,balance,1,22,m,false recall,no
gazelle,pgqgaauvgox,181,298844,mountain,1,22,m,false recall,no
gazelle,pgqgaauvgox,182,300830,void,1,22,m,false recall,no
gazelle,pgqgaauvgox,183,302564,clock,1,22,m,false recall,no
gazelle,pgqgaauvgox,184,311139,sofa,1,22,m,false recall,no
gazelle,pgqgaauvgox,185,314791,basket,1,22,m,false recall,no
gazelle,pgqgaauvgox,186,317464,frame,1,22,m,false recall,no
gazelle,pgqgaauvgox,187,320894,planet,2,22,m,false recall,no
gazelle,pgqgaauvgox,188,322906,window,1,22,m,false recall,no
gazelle,pgqgaauvgox,189,325900,anger,1,22,m,false recall,no
gazelle,pgqgaauvgox,190,329879,chair,3,22,m,false recall,no
gazelle,pgqgaauvgox,191,342291,happy,3,22,m,false recall,no
gazelle,pgqgaauvgox,192,349087,physician,3,22,m,false recall,no
gazelle,pgqgaauvgox,193,351397,cold,3,22,m,false recall,no
gazelle,pgqgaauvgox,194,357990,laptop,2,22,m,false recall,no
gazelle,pgqgaauvgox,195,360296,doctor,3,22,m,false recall,no
squirrel,phgb8tewtjq,154,228746,guitar,3,21,Male,Mind recognition of association of words based on a set or a theme of words and seeing if you're able to recall words based on how familiar they are to the association ,Some words seemed to have smaller size text than others
squirrel,phgb8tewtjq,155,235444,bread,3,21,Male,Mind recognition of association of words based on a set or a theme of words and seeing if you're able to recall words based on how familiar they are to the association ,Some words seemed to have smaller size text than others
squirrel,phgb8tewtjq,156,239013,noise,0,21,Male,Mind recognition of association of words based on a set or a theme of words and seeing if you're able to recall words based on how familiar they are to the association ,Some words seemed to have smaller size text than others
squirrel,phgb8tewtjq,157,241078,doctor,3,21,Male,Mind recognition of association of words based on a set or a theme of words and seeing if you're able to recall words based on how familiar they are to the association ,Some words seemed to have smaller size text than others
squirrel,phgb8tewtjq,158,243296,laptop,0,21,Male,Mind recognition of association of words based on a set or a theme of words and seeing if you're able to recall words based on how familiar they are to the association ,Some words seemed to have smaller size text than others
squirrel,phgb8tewtjq,159,244978,cold,3,21,Male,Mind recognition of association of words based on a set or a theme of words and seeing if you're able to recall words based on how familiar they are to the association ,Some words seemed to have smaller size text than others
squirrel,phgb8tewtjq,160,246462,freeze,3,21,Male,Mind recognition of association of words based on a set or a theme of words and seeing if you're able to recall words based on how familiar they are to the association ,Some words seemed to have smaller size text than others
squirrel,phgb8tewtjq,161,250829,basket,1,21,Male,Mind recognition of association of words based on a set or a theme of words and seeing if you're able to recall words based on how familiar they are to the association ,Some words seemed to have smaller size text than others
squirrel,phgb8tewtjq,162,252696,dentist,3,21,Male,Mind recognition of association of words based on a set or a theme of words and seeing if you're able to recall words based on how familiar they are to the association ,Some words seemed to have smaller size text than others
squirrel,phgb8tewtjq,163,258728,balance,0,21,Male,Mind recognition of association of words based on a set or a theme of words and seeing if you're able to recall words based on how familiar they are to the association ,Some words seemed to have smaller size text than others
squirrel,phgb8tewtjq,164,260279,planet,0,21,Male,Mind recognition of association of words based on a set or a theme of words and seeing if you're able to recall words based on how familiar they are to the association ,Some words seemed to have smaller size text than others
squirrel,phgb8tewtjq,165,262509,slice,2,21,Male,Mind recognition of association of words based on a set or a theme of words and seeing if you're able to recall words based on how familiar they are to the association ,Some words seemed to have smaller size text than others
squirrel,phgb8tewtjq,166,264828,void,1,21,Male,Mind recognition of association of words based on a set or a theme of words and seeing if you're able to recall words based on how familiar they are to the association ,Some words seemed to have smaller size text than others
squirrel,phgb8tewtjq,167,268446,book,2,21,Male,Mind recognition of association of words based on a set or a theme of words and seeing if you're able to recall words based on how familiar they are to the association ,Some words seemed to have smaller size text than others
squirrel,phgb8tewtjq,168,270312,wet,3,21,Male,Mind recognition of association of words based on a set or a theme of words and seeing if you're able to recall words based on how familiar they are to the association ,Some words seemed to have smaller size text than others
squirrel,phgb8tewtjq,169,273462,window,0,21,Male,Mind recognition of association of words based on a set or a theme of words and seeing if you're able to recall words based on how familiar they are to the association ,Some words seemed to have smaller size text than others
squirrel,phgb8tewtjq,170,278346,river,2,21,Male,Mind recognition of association of words based on a set or a theme of words and seeing if you're able to recall words based on how familiar they are to the association ,Some words seemed to have smaller size text than others
squirrel,phgb8tewtjq,171,280195,jelly,3,21,Male,Mind recognition of association of words based on a set or a theme of words and seeing if you're able to recall words based on how familiar they are to the association ,Some words seemed to have smaller size text than others
squirrel,phgb8tewtjq,172,283862,attention,0,21,Male,Mind recognition of association of words based on a set or a theme of words and seeing if you're able to recall words based on how familiar they are to the association ,Some words seemed to have smaller size text than others
squirrel,phgb8tewtjq,173,285611,oven,2,21,Male,Mind recognition of association of words based on a set or a theme of words and seeing if you're able to recall words based on how familiar they are to the association ,Some words seemed to have smaller size text than others
squirrel,phgb8tewtjq,174,287612,wrath,2,21,Male,Mind recognition of association of words based on a set or a theme of words and seeing if you're able to recall words based on how familiar they are to the association ,Some words seemed to have smaller size text than others
squirrel,phgb8tewtjq,175,289446,lighthouse,1,21,Male,Mind recognition of association of words based on a set or a theme of words and seeing if you're able to recall words based on how familiar they are to the association ,Some words seemed to have smaller size text than others
squirrel,phgb8tewtjq,176,291962,balloon,1,21,Male,Mind recognition of association of words based on a set or a theme of words and seeing if you're able to recall words based on how familiar they are to the association ,Some words seemed to have smaller size text than others
squirrel,phgb8tewtjq,177,294345,procedure,2,21,Male,Mind recognition of association of words based on a set or a theme of words and seeing if you're able to recall words based on how familiar they are to the association ,Some words seemed to have smaller size text than others
squirrel,phgb8tewtjq,178,295645,anger,3,21,Male,Mind recognition of association of words based on a set or a theme of words and seeing if you're able to recall words based on how familiar they are to the association ,Some words seemed to have smaller size text than others
squirrel,phgb8tewtjq,179,299229,clock,1,21,Male,Mind recognition of association of words based on a set or a theme of words and seeing if you're able to recall words based on how familiar they are to the association ,Some words seemed to have smaller size text than others
squirrel,phgb8tewtjq,180,302612,frame,2,21,Male,Mind recognition of association of words based on a set or a theme of words and seeing if you're able to recall words based on how familiar they are to the association ,Some words seemed to have smaller size text than others
squirrel,phgb8tewtjq,181,305562,conflict,3,21,Male,Mind recognition of association of words based on a set or a theme of words and seeing if you're able to recall words based on how familiar they are to the association ,Some words seemed to have smaller size text than others
squirrel,phgb8tewtjq,182,311179,camera,1,21,Male,Mind recognition of association of words based on a set or a theme of words and seeing if you're able to recall words based on how familiar they are to the association ,Some words seemed to have smaller size text than others
squirrel,phgb8tewtjq,183,313062,black,3,21,Male,Mind recognition of association of words based on a set or a theme of words and seeing if you're able to recall words based on how familiar they are to the association ,Some words seemed to have smaller size text than others
squirrel,phgb8tewtjq,184,314579,mad,3,21,Male,Mind recognition of association of words based on a set or a theme of words and seeing if you're able to recall words based on how familiar they are to the association ,Some words seemed to have smaller size text than others
squirrel,phgb8tewtjq,185,316530,cushion,3,21,Male,Mind recognition of association of words based on a set or a theme of words and seeing if you're able to recall words based on how familiar they are to the association ,Some words seemed to have smaller size text than others
squirrel,phgb8tewtjq,186,318179,sofa,3,21,Male,Mind recognition of association of words based on a set or a theme of words and seeing if you're able to recall words based on how familiar they are to the association ,Some words seemed to have smaller size text than others
squirrel,phgb8tewtjq,187,320345,mountain,2,21,Male,Mind recognition of association of words based on a set or a theme of words and seeing if you're able to recall words based on how familiar they are to the association ,Some words seemed to have smaller size text than others
squirrel,phgb8tewtjq,188,322211,drift,0,21,Male,Mind recognition of association of words based on a set or a theme of words and seeing if you're able to recall words based on how familiar they are to the association ,Some words seemed to have smaller size text than others
squirrel,phgb8tewtjq,189,323896,shade,2,21,Male,Mind recognition of association of words based on a set or a theme of words and seeing if you're able to recall words based on how familiar they are to the association ,Some words seemed to have smaller size text than others
squirrel,phgb8tewtjq,190,326262,death,3,21,Male,Mind recognition of association of words based on a set or a theme of words and seeing if you're able to recall words based on how familiar they are to the association ,Some words seemed to have smaller size text than others
squirrel,phgb8tewtjq,191,331662,curtain,1,21,Male,Mind recognition of association of words based on a set or a theme of words and seeing if you're able to recall words based on how familiar they are to the association ,Some words seemed to have smaller size text than others
squirrel,phgb8tewtjq,192,333046,physician,3,21,Male,Mind recognition of association of words based on a set or a theme of words and seeing if you're able to recall words based on how familiar they are to the association ,Some words seemed to have smaller size text than others
squirrel,phgb8tewtjq,193,334712,chair,3,21,Male,Mind recognition of association of words based on a set or a theme of words and seeing if you're able to recall words based on how familiar they are to the association ,Some words seemed to have smaller size text than others
squirrel,phgb8tewtjq,194,336596,elephant,1,21,Male,Mind recognition of association of words based on a set or a theme of words and seeing if you're able to recall words based on how familiar they are to the association ,Some words seemed to have smaller size text than others
squirrel,phgb8tewtjq,195,338878,charred,3,21,Male,Mind recognition of association of words based on a set or a theme of words and seeing if you're able to recall words based on how familiar they are to the association ,Some words seemed to have smaller size text than others
dolphin,phumhep7blt,154,210407,laptop,3,18,Male,To see how people categorize sets and their recall of them,No
dolphin,phumhep7blt,155,212081,noise,3,18,Male,To see how people categorize sets and their recall of them,No
dolphin,phumhep7blt,156,214395,legs,3,18,Male,To see how people categorize sets and their recall of them,No
dolphin,phumhep7blt,157,217098,curtain,3,18,Male,To see how people categorize sets and their recall of them,No
dolphin,phumhep7blt,158,219346,nurse,0,18,Male,To see how people categorize sets and their recall of them,No
dolphin,phumhep7blt,159,221368,eat,2,18,Male,To see how people categorize sets and their recall of them,No
dolphin,phumhep7blt,160,222906,mountain,2,18,Male,To see how people categorize sets and their recall of them,No
dolphin,phumhep7blt,161,224443,conflict,2,18,Male,To see how people categorize sets and their recall of them,No
dolphin,phumhep7blt,162,228018,grief,2,18,Male,To see how people categorize sets and their recall of them,No
dolphin,phumhep7blt,163,230543,elephant,2,18,Male,To see how people categorize sets and their recall of them,No
dolphin,phumhep7blt,164,232057,balance,2,18,Male,To see how people categorize sets and their recall of them,No
dolphin,phumhep7blt,165,233828,river,1,18,Male,To see how people categorize sets and their recall of them,No
dolphin,phumhep7blt,166,236085,shade,1,18,Male,To see how people categorize sets and their recall of them,No
dolphin,phumhep7blt,167,237662,book,2,18,Male,To see how people categorize sets and their recall of them,No
dolphin,phumhep7blt,168,240478,lighthouse,1,18,Male,To see how people categorize sets and their recall of them,No
dolphin,phumhep7blt,169,242589,window,2,18,Male,To see how people categorize sets and their recall of them,No
dolphin,phumhep7blt,170,246028,camera,2,18,Male,To see how people categorize sets and their recall of them,No
dolphin,phumhep7blt,171,247428,drift,2,18,Male,To see how people categorize sets and their recall of them,No
dolphin,phumhep7blt,172,252079,clock,1,18,Male,To see how people categorize sets and their recall of them,No
dolphin,phumhep7blt,173,254126,doctor,0,18,Male,To see how people categorize sets and their recall of them,No
dolphin,phumhep7blt,174,256456,office,0,18,Male,To see how people categorize sets and their recall of them,No
dolphin,phumhep7blt,175,259296,guitar,1,18,Male,To see how people categorize sets and their recall of them,No
dolphin,phumhep7blt,176,260938,fight,2,18,Male,To see how people categorize sets and their recall of them,No
dolphin,phumhep7blt,177,262330,planet,2,18,Male,To see how people categorize sets and their recall of them,No
dolphin,phumhep7blt,178,263656,balloon,1,18,Male,To see how people categorize sets and their recall of them,No
dolphin,phumhep7blt,179,265671,rye,2,18,Male,To see how people categorize sets and their recall of them,No
dolphin,phumhep7blt,180,267547,anger,2,18,Male,To see how people categorize sets and their recall of them,No
dolphin,phumhep7blt,181,270315,attention,2,18,Male,To see how people categorize sets and their recall of them,No
dolphin,phumhep7blt,182,274732,wrath,2,18,Male,To see how people categorize sets and their recall of them,No
dolphin,phumhep7blt,183,276778,frigid,2,18,Male,To see how people categorize sets and their recall of them,No
dolphin,phumhep7blt,184,278040,oven,2,18,Male,To see how people categorize sets and their recall of them,No
dolphin,phumhep7blt,185,280839,frame,2,18,Male,To see how people categorize sets and their recall of them,No
dolphin,phumhep7blt,186,284141,white,0,18,Male,To see how people categorize sets and their recall of them,No
dolphin,phumhep7blt,187,288232,bread,2,18,Male,To see how people categorize sets and their recall of them,No
dolphin,phumhep7blt,188,296624,winter,2,18,Male,To see how people categorize sets and their recall of them,No
dolphin,phumhep7blt,189,298483,sit,2,18,Male,To see how people categorize sets and their recall of them,No
dolphin,phumhep7blt,190,300360,void,2,18,Male,To see how people categorize sets and their recall of them,No
dolphin,phumhep7blt,191,302034,basket,1,18,Male,To see how people categorize sets and their recall of them,No
dolphin,phumhep7blt,192,303425,chair,1,18,Male,To see how people categorize sets and their recall of them,No
dolphin,phumhep7blt,193,306257,procedure,2,18,Male,To see how people categorize sets and their recall of them,No
dolphin,phumhep7blt,194,309591,cold,2,18,Male,To see how people categorize sets and their recall of them,No
dolphin,phumhep7blt,195,310867,black,1,18,Male,To see how people categorize sets and their recall of them,No
otter,pjho8qfughu,154,240549,cold,2,20,Male,I think the purpose of this experiment was for us to see if we could recall the words in the list.,Nope!
otter,pjho8qfughu,155,244615,laptop,1,20,Male,I think the purpose of this experiment was for us to see if we could recall the words in the list.,Nope!
otter,pjho8qfughu,156,246714,doctor,1,20,Male,I think the purpose of this experiment was for us to see if we could recall the words in the list.,Nope!
otter,pjho8qfughu,157,248881,ice,3,20,Male,I think the purpose of this experiment was for us to see if we could recall the words in the list.,Nope!
otter,pjho8qfughu,158,251552,frame,2,20,Male,I think the purpose of this experiment was for us to see if we could recall the words in the list.,Nope!
otter,pjho8qfughu,159,253652,hatred,3,20,Male,I think the purpose of this experiment was for us to see if we could recall the words in the list.,Nope!
otter,pjho8qfughu,160,255900,mountain,1,20,Male,I think the purpose of this experiment was for us to see if we could recall the words in the list.,Nope!
otter,pjho8qfughu,161,259031,black,1,20,Male,I think the purpose of this experiment was for us to see if we could recall the words in the list.,Nope!
otter,pjho8qfughu,162,261152,funeral,3,20,Male,I think the purpose of this experiment was for us to see if we could recall the words in the list.,Nope!
otter,pjho8qfughu,163,263483,noise,1,20,Male,I think the purpose of this experiment was for us to see if we could recall the words in the list.,Nope!
otter,pjho8qfughu,164,265314,food,1,20,Male,I think the purpose of this experiment was for us to see if we could recall the words in the list.,Nope!
otter,pjho8qfughu,165,267664,balance,1,20,Male,I think the purpose of this experiment was for us to see if we could recall the words in the list.,Nope!
otter,pjho8qfughu,166,269863,lighthouse,1,20,Male,I think the purpose of this experiment was for us to see if we could recall the words in the list.,Nope!
otter,pjho8qfughu,167,271869,oven,1,20,Male,I think the purpose of this experiment was for us to see if we could recall the words in the list.,Nope!
otter,pjho8qfughu,168,273582,curtain,1,20,Male,I think the purpose of this experiment was for us to see if we could recall the words in the list.,Nope!
otter,pjho8qfughu,169,275735,ill,3,20,Male,I think the purpose of this experiment was for us to see if we could recall the words in the list.,Nope!
otter,pjho8qfughu,170,278002,book,2,20,Male,I think the purpose of this experiment was for us to see if we could recall the words in the list.,Nope!
otter,pjho8qfughu,171,281398,recliner,3,20,Male,I think the purpose of this experiment was for us to see if we could recall the words in the list.,Nope!
otter,pjho8qfughu,172,288118,chair,1,20,Male,I think the purpose of this experiment was for us to see if we could recall the words in the list.,Nope!
otter,pjho8qfughu,173,290029,planet,1,20,Male,I think the purpose of this experiment was for us to see if we could recall the words in the list.,Nope!
otter,pjho8qfughu,174,291480,clock,1,20,Male,I think the purpose of this experiment was for us to see if we could recall the words in the list.,Nope!
otter,pjho8qfughu,175,292863,drift,1,20,Male,I think the purpose of this experiment was for us to see if we could recall the words in the list.,Nope!
otter,pjho8qfughu,176,294800,guitar,1,20,Male,I think the purpose of this experiment was for us to see if we could recall the words in the list.,Nope!
otter,pjho8qfughu,177,296130,sick,1,20,Male,I think the purpose of this experiment was for us to see if we could recall the words in the list.,Nope!
otter,pjho8qfughu,178,298480,procedure,1,20,Male,I think the purpose of this experiment was for us to see if we could recall the words in the list.,Nope!
otter,pjho8qfughu,179,300097,basket,1,20,Male,I think the purpose of this experiment was for us to see if we could recall the words in the list.,Nope!
otter,pjho8qfughu,180,302166,color,3,20,Male,I think the purpose of this experiment was for us to see if we could recall the words in the list.,Nope!
otter,pjho8qfughu,181,303882,river,2,20,Male,I think the purpose of this experiment was for us to see if we could recall the words in the list.,Nope!
otter,pjho8qfughu,182,305781,window,2,20,Male,I think the purpose of this experiment was for us to see if we could recall the words in the list.,Nope!
otter,pjho8qfughu,183,308634,void,0,20,Male,I think the purpose of this experiment was for us to see if we could recall the words in the list.,Nope!
otter,pjho8qfughu,184,312196,swivel,3,20,Male,I think the purpose of this experiment was for us to see if we could recall the words in the list.,Nope!
otter,pjho8qfughu,185,314180,attention,1,20,Male,I think the purpose of this experiment was for us to see if we could recall the words in the list.,Nope!
otter,pjho8qfughu,186,317017,balloon,1,20,Male,I think the purpose of this experiment was for us to see if we could recall the words in the list.,Nope!
otter,pjho8qfughu,187,318833,mean,3,20,Male,I think the purpose of this experiment was for us to see if we could recall the words in the list.,Nope!
otter,pjho8qfughu,188,320379,camera,1,20,Male,I think the purpose of this experiment was for us to see if we could recall the words in the list.,Nope!
otter,pjho8qfughu,189,322380,bread,2,20,Male,I think the purpose of this experiment was for us to see if we could recall the words in the list.,Nope!
otter,pjho8qfughu,190,325068,shade,2,20,Male,I think the purpose of this experiment was for us to see if we could recall the words in the list.,Nope!
otter,pjho8qfughu,191,326931,elephant,1,20,Male,I think the purpose of this experiment was for us to see if we could recall the words in the list.,Nope!
otter,pjho8qfughu,192,328367,conflict,1,20,Male,I think the purpose of this experiment was for us to see if we could recall the words in the list.,Nope!
otter,pjho8qfughu,193,330633,butter,1,20,Male,I think the purpose of this experiment was for us to see if we could recall the words in the list.,Nope!
otter,pjho8qfughu,194,332918,anger,2,20,Male,I think the purpose of this experiment was for us to see if we could recall the words in the list.,Nope!
otter,pjho8qfughu,195,334851,heat,3,20,Male,I think the purpose of this experiment was for us to see if we could recall the words in the list.,Nope!
shark,pjvubvl9wpb,154,235263,recliner,3,21,Male,Do we falsely recall words that sound similar/match category of the distinct word lists that we study,no
shark,pjvubvl9wpb,155,237047,dark,3,21,Male,Do we falsely recall words that sound similar/match category of the distinct word lists that we study,no
shark,pjvubvl9wpb,156,240803,planet,0,21,Male,Do we falsely recall words that sound similar/match category of the distinct word lists that we study,no
shark,pjvubvl9wpb,157,244561,book,0,21,Male,Do we falsely recall words that sound similar/match category of the distinct word lists that we study,no
shark,pjvubvl9wpb,158,247116,void,1,21,Male,Do we falsely recall words that sound similar/match category of the distinct word lists that we study,no
shark,pjvubvl9wpb,159,249108,charred,3,21,Male,Do we falsely recall words that sound similar/match category of the distinct word lists that we study,no
shark,pjvubvl9wpb,160,250820,fury,3,21,Male,Do we falsely recall words that sound similar/match category of the distinct word lists that we study,no
shark,pjvubvl9wpb,161,253465,dentist,2,21,Male,Do we falsely recall words that sound similar/match category of the distinct word lists that we study,no
shark,pjvubvl9wpb,162,257348,frame,1,21,Male,Do we falsely recall words that sound similar/match category of the distinct word lists that we study,no
shark,pjvubvl9wpb,163,260021,air,0,21,Male,Do we falsely recall words that sound similar/match category of the distinct word lists that we study,no
shark,pjvubvl9wpb,164,261961,laptop,0,21,Male,Do we falsely recall words that sound similar/match category of the distinct word lists that we study,no
shark,pjvubvl9wpb,165,264398,lighthouse,0,21,Male,Do we falsely recall words that sound similar/match category of the distinct word lists that we study,no
shark,pjvubvl9wpb,166,266069,camera,0,21,Male,Do we falsely recall words that sound similar/match category of the distinct word lists that we study,no
shark,pjvubvl9wpb,167,268245,window,2,21,Male,Do we falsely recall words that sound similar/match category of the distinct word lists that we study,no
shark,pjvubvl9wpb,168,270921,warm,3,21,Male,Do we falsely recall words that sound similar/match category of the distinct word lists that we study,no
shark,pjvubvl9wpb,169,273302,oven,0,21,Male,Do we falsely recall words that sound similar/match category of the distinct word lists that we study,no
shark,pjvubvl9wpb,170,275157,cushion,3,21,Male,Do we falsely recall words that sound similar/match category of the distinct word lists that we study,no
shark,pjvubvl9wpb,171,276767,mean,3,21,Male,Do we falsely recall words that sound similar/match category of the distinct word lists that we study,no
shark,pjvubvl9wpb,172,279676,river,0,21,Male,Do we falsely recall words that sound similar/match category of the distinct word lists that we study,no
shark,pjvubvl9wpb,173,281503,balloon,0,21,Male,Do we falsely recall words that sound similar/match category of the distinct word lists that we study,no
shark,pjvubvl9wpb,174,283773,curtain,1,21,Male,Do we falsely recall words that sound similar/match category of the distinct word lists that we study,no
shark,pjvubvl9wpb,175,285374,jelly,3,21,Male,Do we falsely recall words that sound similar/match category of the distinct word lists that we study,no
shark,pjvubvl9wpb,176,287270,stethoscope,3,21,Male,Do we falsely recall words that sound similar/match category of the distinct word lists that we study,no
shark,pjvubvl9wpb,177,289529,conflict,0,21,Male,Do we falsely recall words that sound similar/match category of the distinct word lists that we study,no
shark,pjvubvl9wpb,178,291558,clock,0,21,Male,Do we falsely recall words that sound similar/match category of the distinct word lists that we study,no
shark,pjvubvl9wpb,179,293480,mountain,0,21,Male,Do we falsely recall words that sound similar/match category of the distinct word lists that we study,no
shark,pjvubvl9wpb,180,295570,guitar,0,21,Male,Do we falsely recall words that sound similar/match category of the distinct word lists that we study,no
shark,pjvubvl9wpb,181,298253,doctor,2,21,Male,Do we falsely recall words that sound similar/match category of the distinct word lists that we study,no
shark,pjvubvl9wpb,182,301898,cold,2,21,Male,Do we falsely recall words that sound similar/match category of the distinct word lists that we study,no
shark,pjvubvl9wpb,183,304929,attention,0,21,Male,Do we falsely recall words that sound similar/match category of the distinct word lists that we study,no
shark,pjvubvl9wpb,184,306457,rye,3,21,Male,Do we falsely recall words that sound similar/match category of the distinct word lists that we study,no
shark,pjvubvl9wpb,185,308543,balance,1,21,Male,Do we falsely recall words that sound similar/match category of the distinct word lists that we study,no
shark,pjvubvl9wpb,186,311029,procedure,1,21,Male,Do we falsely recall words that sound similar/match category of the distinct word lists that we study,no
shark,pjvubvl9wpb,187,313325,shade,0,21,Male,Do we falsely recall words that sound similar/match category of the distinct word lists that we study,no
shark,pjvubvl9wpb,188,316124,bread,2,21,Male,Do we falsely recall words that sound similar/match category of the distinct word lists that we study,no
shark,pjvubvl9wpb,189,318726,black,1,21,Male,Do we falsely recall words that sound similar/match category of the distinct word lists that we study,no
shark,pjvubvl9wpb,190,322273,elephant,0,21,Male,Do we falsely recall words that sound similar/match category of the distinct word lists that we study,no
shark,pjvubvl9wpb,191,323867,drift,0,21,Male,Do we falsely recall words that sound similar/match category of the distinct word lists that we study,no
shark,pjvubvl9wpb,192,325516,noise,0,21,Male,Do we falsely recall words that sound similar/match category of the distinct word lists that we study,no
shark,pjvubvl9wpb,193,327225,basket,0,21,Male,Do we falsely recall words that sound similar/match category of the distinct word lists that we study,no
shark,pjvubvl9wpb,194,329113,chair,0,21,Male,Do we falsely recall words that sound similar/match category of the distinct word lists that we study,no
shark,pjvubvl9wpb,195,330900,anger,3,21,Male,Do we falsely recall words that sound similar/match category of the distinct word lists that we study,no
hyena,pkad1o6ok2o,154,228553,chair,0,22,female,to see if participants think they can recall certain words that they actually didn't hear,n/a
hyena,pkad1o6ok2o,155,234044,white,3,22,female,to see if participants think they can recall certain words that they actually didn't hear,n/a
hyena,pkad1o6ok2o,156,240373,elephant,0,22,female,to see if participants think they can recall certain words that they actually didn't hear,n/a
hyena,pkad1o6ok2o,157,245480,legs,3,22,female,to see if participants think they can recall certain words that they actually didn't hear,n/a
hyena,pkad1o6ok2o,158,250007,procedure,0,22,female,to see if participants think they can recall certain words that they actually didn't hear,n/a
hyena,pkad1o6ok2o,159,255667,noise,0,22,female,to see if participants think they can recall certain words that they actually didn't hear,n/a
hyena,pkad1o6ok2o,160,277326,hate,2,22,female,to see if participants think they can recall certain words that they actually didn't hear,n/a
hyena,pkad1o6ok2o,161,281968,balance,3,22,female,to see if participants think they can recall certain words that they actually didn't hear,n/a
hyena,pkad1o6ok2o,162,286505,lighthouse,0,22,female,to see if participants think they can recall certain words that they actually didn't hear,n/a
hyena,pkad1o6ok2o,163,291618,black,1,22,female,to see if participants think they can recall certain words that they actually didn't hear,n/a
hyena,pkad1o6ok2o,164,298843,camera,1,22,female,to see if participants think they can recall certain words that they actually didn't hear,n/a
hyena,pkad1o6ok2o,165,306168,fear,3,22,female,to see if participants think they can recall certain words that they actually didn't hear,n/a
hyena,pkad1o6ok2o,166,310897,frame,0,22,female,to see if participants think they can recall certain words that they actually didn't hear,n/a
hyena,pkad1o6ok2o,167,316664,bottom,3,22,female,to see if participants think they can recall certain words that they actually didn't hear,n/a
hyena,pkad1o6ok2o,168,320909,book,0,22,female,to see if participants think they can recall certain words that they actually didn't hear,n/a
hyena,pkad1o6ok2o,169,324401,balloon,0,22,female,to see if participants think they can recall certain words that they actually didn't hear,n/a
hyena,pkad1o6ok2o,170,328657,mountain,3,22,female,to see if participants think they can recall certain words that they actually didn't hear,n/a
hyena,pkad1o6ok2o,171,333627,doctor,0,22,female,to see if participants think they can recall certain words that they actually didn't hear,n/a
hyena,pkad1o6ok2o,172,337785,conflict,2,22,female,to see if participants think they can recall certain words that they actually didn't hear,n/a
hyena,pkad1o6ok2o,173,344530,anger,3,22,female,to see if participants think they can recall certain words that they actually didn't hear,n/a
hyena,pkad1o6ok2o,174,348986,clock,0,22,female,to see if participants think they can recall certain words that they actually didn't hear,n/a
hyena,pkad1o6ok2o,175,352851,guitar,0,22,female,to see if participants think they can recall certain words that they actually didn't hear,n/a
hyena,pkad1o6ok2o,176,357292,nurse,3,22,female,to see if participants think they can recall certain words that they actually didn't hear,n/a
hyena,pkad1o6ok2o,177,362420,bread,1,22,female,to see if participants think they can recall certain words that they actually didn't hear,n/a
hyena,pkad1o6ok2o,178,366100,sandwich,0,22,female,to see if participants think they can recall certain words that they actually didn't hear,n/a
hyena,pkad1o6ok2o,179,369663,river,3,22,female,to see if participants think they can recall certain words that they actually didn't hear,n/a
hyena,pkad1o6ok2o,180,375255,laptop,0,22,female,to see if participants think they can recall certain words that they actually didn't hear,n/a
hyena,pkad1o6ok2o,181,379899,attention,0,22,female,to see if participants think they can recall certain words that they actually didn't hear,n/a
hyena,pkad1o6ok2o,182,394228,basket,1,22,female,to see if participants think they can recall certain words that they actually didn't hear,n/a
hyena,pkad1o6ok2o,183,398616,curtain,0,22,female,to see if participants think they can recall certain words that they actually didn't hear,n/a
hyena,pkad1o6ok2o,184,406310,window,0,22,female,to see if participants think they can recall certain words that they actually didn't hear,n/a
hyena,pkad1o6ok2o,185,410594,shade,3,22,female,to see if participants think they can recall certain words that they actually didn't hear,n/a
hyena,pkad1o6ok2o,186,415222,office,2,22,female,to see if participants think they can recall certain words that they actually didn't hear,n/a
hyena,pkad1o6ok2o,187,419669,heat,3,22,female,to see if participants think they can recall certain words that they actually didn't hear,n/a
hyena,pkad1o6ok2o,188,423150,drift,1,22,female,to see if participants think they can recall certain words that they actually didn't hear,n/a
hyena,pkad1o6ok2o,189,426159,planet,1,22,female,to see if participants think they can recall certain words that they actually didn't hear,n/a
hyena,pkad1o6ok2o,190,430251,cold,3,22,female,to see if participants think they can recall certain words that they actually didn't hear,n/a
hyena,pkad1o6ok2o,191,434601,oven,0,22,female,to see if participants think they can recall certain words that they actually didn't hear,n/a
hyena,pkad1o6ok2o,192,439756,void,0,22,female,to see if participants think they can recall certain words that they actually didn't hear,n/a
hyena,pkad1o6ok2o,193,444475,ice,0,22,female,to see if participants think they can recall certain words that they actually didn't hear,n/a
hyena,pkad1o6ok2o,194,449497,sofa,3,22,female,to see if participants think they can recall certain words that they actually didn't hear,n/a
hyena,pkad1o6ok2o,195,453504,food,1,22,female,to see if participants think they can recall certain words that they actually didn't hear,n/a
heron,pkla5o2651l,154,273862,guitar,2,24,female,honestly i have no clue ,no
heron,pkla5o2651l,155,282622,frame,2,24,female,honestly i have no clue ,no
heron,pkla5o2651l,156,285118,procedure,1,24,female,honestly i have no clue ,no
heron,pkla5o2651l,157,286854,drift,2,24,female,honestly i have no clue ,no
heron,pkla5o2651l,158,288406,chair,2,24,female,honestly i have no clue ,no
heron,pkla5o2651l,159,289366,clock,2,24,female,honestly i have no clue ,no
heron,pkla5o2651l,160,293158,noise,3,24,female,honestly i have no clue ,no
heron,pkla5o2651l,161,295406,oven,2,24,female,honestly i have no clue ,no
heron,pkla5o2651l,162,296510,book,2,24,female,honestly i have no clue ,no
heron,pkla5o2651l,163,299094,sick,0,24,female,honestly i have no clue ,no
heron,pkla5o2651l,164,300742,wet,1,24,female,honestly i have no clue ,no
heron,pkla5o2651l,165,301950,conflict,2,24,female,honestly i have no clue ,no
heron,pkla5o2651l,166,303630,curtain,2,24,female,honestly i have no clue ,no
heron,pkla5o2651l,167,305422,hate,0,24,female,honestly i have no clue ,no
heron,pkla5o2651l,168,306790,mountain,2,24,female,honestly i have no clue ,no
heron,pkla5o2651l,169,308062,river,1,24,female,honestly i have no clue ,no
heron,pkla5o2651l,170,309278,shade,2,24,female,honestly i have no clue ,no
heron,pkla5o2651l,171,310767,lighthouse,2,24,female,honestly i have no clue ,no
heron,pkla5o2651l,172,312862,medicine,2,24,female,honestly i have no clue ,no
heron,pkla5o2651l,173,316510,ink,0,24,female,honestly i have no clue ,no
heron,pkla5o2651l,174,318438,anger,0,24,female,honestly i have no clue ,no
heron,pkla5o2651l,175,321231,rage,0,24,female,honestly i have no clue ,no
heron,pkla5o2651l,176,323967,swivel,2,24,female,honestly i have no clue ,no
heron,pkla5o2651l,177,325406,bread,1,24,female,honestly i have no clue ,no
heron,pkla5o2651l,178,326871,elephant,2,24,female,honestly i have no clue ,no
heron,pkla5o2651l,179,327847,jelly,2,24,female,honestly i have no clue ,no
heron,pkla5o2651l,180,329047,laptop,2,24,female,honestly i have no clue ,no
