success,rt,trial_type,trial_index,plugin_version,time_elapsed,random_id,participant,stimulus,response,word,type,question_order,file_name
TRUE,1088,fullscreen,0,null,2092,p0kqwtb8qfg,jaguar,NA,NA,NA,NA,NA,/Users/martincz/GitHub/COGS119/group_fa24_false_recall/analysis/../data/raw_data/p0kqwtb8qfg_1732221568912.csv
NA,33292,html-keyboard-response,1,2.0.0,35387,p0kqwtb8qfg,jaguar,"Welcome to the Fasle Recall Experiment.<p>You will see and listen to 6 lists of 12-words one at a time. Try to remember as many as you can.</p><p>After the list, you’ll be asked to complete a recognition test.</p><p>Press any key to begin.</p>",s,NA,NA,NA,/Users/martincz/GitHub/COGS119/group_fa24_false_recall/analysis/../data/raw_data/p0kqwtb8qfg_1732221568912.csv
NA,2724,survey-text,2,2.0.0,38127,p0kqwtb8qfg,jaguar,NA,"{""participant_id"":""jaguar""}",NA,NA,NA,/Users/martincz/GitHub/COGS119/group_fa24_false_recall/analysis/../data/raw_data/p0kqwtb8qfg_1732221568912.csv
NA,null,html-keyboard-response,3,2.0.0,40131,p0kqwtb8qfg,jaguar,<h3>List 1 </h3>,null,NA,NA,NA,/Users/martincz/GitHub/COGS119/group_fa24_false_recall/analysis/../data/raw_data/p0kqwtb8qfg_1732221568912.csv
NA,null,html-keyboard-response,4,2.0.0,41133,p0kqwtb8qfg,jaguar,"<div style=""font-size:60px;"">+</div>",null,NA,NA,NA,/Users/martincz/GitHub/COGS119/group_fa24_false_recall/analysis/../data/raw_data/p0kqwtb8qfg_1732221568912.csv
NA,null,html-keyboard-response,5,2.0.0,42635,p0kqwtb8qfg,jaguar,<p>jam</p>,null,NA,NA,NA,/Users/martincz/GitHub/COGS119/group_fa24_false_recall/analysis/../data/raw_data/p0kqwtb8qfg_1732221568912.csv
NA,null,html-keyboard-response,6,2.0.0,43638,p0kqwtb8qfg,jaguar,"<div style=""font-size:60px;"">+</div>",null,NA,NA,NA,/Users/martincz/GitHub/COGS119/group_fa24_false_recall/analysis/../data/raw_data/p0kqwtb8qfg_1732221568912.csv
NA,null,html-keyboard-response,7,2.0.0,45141,p0kqwtb8qfg,jaguar,<p>slice</p>,null,NA,NA,NA,/Users/martincz/GitHub/COGS119/group_fa24_false_recall/analysis/../data/raw_data/p0kqwtb8qfg_1732221568912.csv
NA,null,html-keyboard-response,8,2.0.0,46143,p0kqwtb8qfg,jaguar,"<div style=""font-size:60px;"">+</div>",null,NA,NA,NA,/Users/martincz/GitHub/COGS119/group_fa24_false_recall/analysis/../data/raw_data/p0kqwtb8qfg_1732221568912.csv
NA,null,html-keyboard-response,9,2.0.0,47646,p0kqwtb8qfg,jaguar,<p>butter</p>,null,NA,NA,NA,/Users/martincz/GitHub/COGS119/group_fa24_false_recall/analysis/../data/raw_data/p0kqwtb8qfg_1732221568912.csv
NA,null,html-keyboard-response,10,2.0.0,48649,p0kqwtb8qfg,jaguar,"<div style=""font-size:60px;"">+</div>",null,NA,NA,NA,/Users/martincz/GitHub/COGS119/group_fa24_false_recall/analysis/../data/raw_data/p0kqwtb8qfg_1732221568912.csv
NA,null,html-keyboard-response,11,2.0.0,50151,p0kqwtb8qfg,jaguar,<p>flour</p>,null,NA,NA,NA,/Users/martincz/GitHub/COGS119/group_fa24_false_recall/analysis/../data/raw_data/p0kqwtb8qfg_1732221568912.csv
NA,null,html-keyboard-response,12,2.0.0,51154,p0kqwtb8qfg,jaguar,"<div style=""font-size:60px;"">+</div>",null,NA,NA,NA,/Users/martincz/GitHub/COGS119/group_fa24_false_recall/analysis/../data/raw_data/p0kqwtb8qfg_1732221568912.csv
NA,null,html-keyboard-response,13,2.0.0,52656,p0kqwtb8qfg,jaguar,<p>food</p>,null,NA,NA,NA,/Users/martincz/GitHub/COGS119/group_fa24_false_recall/analysis/../data/raw_data/p0kqwtb8qfg_1732221568912.csv
NA,null,html-keyboard-response,14,2.0.0,53659,p0kqwtb8qfg,jaguar,"<div style=""font-size:60px;"">+</div>",null,NA,NA,NA,/Users/martincz/GitHub/COGS119/group_fa24_false_recall/analysis/../data/raw_data/p0kqwtb8qfg_1732221568912.csv
NA,null,html-keyboard-response,15,2.0.0,55161,p0kqwtb8qfg,jaguar,<p>milk</p>,null,NA,NA,NA,/Users/martincz/GitHub/COGS119/group_fa24_false_recall/analysis/../data/raw_data/p0kqwtb8qfg_1732221568912.csv
NA,null,html-keyboard-response,16,2.0.0,56164,p0kqwtb8qfg,jaguar,"<div style=""font-size:60px;"">+</div>",null,NA,NA,NA,/Users/martincz/GitHub/COGS119/group_fa24_false_recall/analysis/../data/raw_data/p0kqwtb8qfg_1732221568912.csv
NA,null,html-keyboard-response,17,2.0.0,57666,p0kqwtb8qfg,jaguar,<p>jelly</p>,null,NA,NA,NA,/Users/martincz/GitHub/COGS119/group_fa24_false_recall/analysis/../data/raw_data/p0kqwtb8qfg_1732221568912.csv
NA,null,html-keyboard-response,18,2.0.0,58668,p0kqwtb8qfg,jaguar,"<div style=""font-size:60px;"">+</div>",null,NA,NA,NA,/Users/martincz/GitHub/COGS119/group_fa24_false_recall/analysis/../data/raw_data/p0kqwtb8qfg_1732221568912.csv
NA,null,html-keyboard-response,19,2.0.0,60171,p0kqwtb8qfg,jaguar,<p>crust</p>,null,NA,NA,NA,/Users/martincz/GitHub/COGS119/group_fa24_false_recall/analysis/../data/raw_data/p0kqwtb8qfg_1732221568912.csv
NA,null,html-keyboard-response,20,2.0.0,61173,p0kqwtb8qfg,jaguar,"<div style=""font-size:60px;"">+</div>",null,NA,NA,NA,/Users/martincz/GitHub/COGS119/group_fa24_false_recall/analysis/../data/raw_data/p0kqwtb8qfg_1732221568912.csv
NA,null,html-keyboard-response,21,2.0.0,62676,p0kqwtb8qfg,jaguar,<p>dough</p>,null,NA,NA,NA,/Users/martincz/GitHub/COGS119/group_fa24_false_recall/analysis/../data/raw_data/p0kqwtb8qfg_1732221568912.csv
NA,null,html-keyboard-response,22,2.0.0,63678,p0kqwtb8qfg,jaguar,"<div style=""font-size:60px;"">+</div>",null,NA,NA,NA,/Users/martincz/GitHub/COGS119/group_fa24_false_recall/analysis/../data/raw_data/p0kqwtb8qfg_1732221568912.csv
NA,null,html-keyboard-response,23,2.0.0,65181,p0kqwtb8qfg,jaguar,<p>sandwich</p>,null,NA,NA,NA,/Users/martincz/GitHub/COGS119/group_fa24_false_recall/analysis/../data/raw_data/p0kqwtb8qfg_1732221568912.csv
NA,null,html-keyboard-response,24,2.0.0,66184,p0kqwtb8qfg,jaguar,"<div style=""font-size:60px;"">+</div>",null,NA,NA,NA,/Users/martincz/GitHub/COGS119/group_fa24_false_recall/analysis/../data/raw_data/p0kqwtb8qfg_1732221568912.csv
NA,null,html-keyboard-response,25,2.0.0,67686,p0kqwtb8qfg,jaguar,<p>rye</p>,null,NA,NA,NA,/Users/martincz/GitHub/COGS119/group_fa24_false_recall/analysis/../data/raw_data/p0kqwtb8qfg_1732221568912.csv
NA,null,html-keyboard-response,26,2.0.0,68688,p0kqwtb8qfg,jaguar,"<div style=""font-size:60px;"">+</div>",null,NA,NA,NA,/Users/martincz/GitHub/COGS119/group_fa24_false_recall/analysis/../data/raw_data/p0kqwtb8qfg_1732221568912.csv
NA,null,html-keyboard-response,27,2.0.0,70191,p0kqwtb8qfg,jaguar,<p>eat</p>,null,NA,NA,NA,/Users/martincz/GitHub/COGS119/group_fa24_false_recall/analysis/../data/raw_data/p0kqwtb8qfg_1732221568912.csv
NA,null,html-keyboard-response,28,2.0.0,72193,p0kqwtb8qfg,jaguar,<h3>List 2 </h3>,null,NA,NA,NA,/Users/martincz/GitHub/COGS119/group_fa24_false_recall/analysis/../data/raw_data/p0kqwtb8qfg_1732221568912.csv
NA,null,html-keyboard-response,29,2.0.0,73195,p0kqwtb8qfg,jaguar,"<div style=""font-size:60px;"">+</div>",null,NA,NA,NA,/Users/martincz/GitHub/COGS119/group_fa24_false_recall/analysis/../data/raw_data/p0kqwtb8qfg_1732221568912.csv
NA,null,html-keyboard-response,30,2.0.0,74697,p0kqwtb8qfg,jaguar,<p>death</p>,null,NA,NA,NA,/Users/martincz/GitHub/COGS119/group_fa24_false_recall/analysis/../data/raw_data/p0kqwtb8qfg_1732221568912.csv
NA,null,html-keyboard-response,31,2.0.0,75699,p0kqwtb8qfg,jaguar,"<div style=""font-size:60px;"">+</div>",null,NA,NA,NA,/Users/martincz/GitHub/COGS119/group_fa24_false_recall/analysis/../data/raw_data/p0kqwtb8qfg_1732221568912.csv
NA,null,html-keyboard-response,32,2.0.0,77201,p0kqwtb8qfg,jaguar,<p>night</p>,null,NA,NA,NA,/Users/martincz/GitHub/COGS119/group_fa24_false_recall/analysis/../data/raw_data/p0kqwtb8qfg_1732221568912.csv
NA,null,html-keyboard-response,33,2.0.0,78204,p0kqwtb8qfg,jaguar,"<div style=""font-size:60px;"">+</div>",null,NA,NA,NA,/Users/martincz/GitHub/COGS119/group_fa24_false_recall/analysis/../data/raw_data/p0kqwtb8qfg_1732221568912.csv
NA,null,html-keyboard-response,34,2.0.0,79707,p0kqwtb8qfg,jaguar,<p>bottom</p>,null,NA,NA,NA,/Users/martincz/GitHub/COGS119/group_fa24_false_recall/analysis/../data/raw_data/p0kqwtb8qfg_1732221568912.csv
NA,null,html-keyboard-response,35,2.0.0,80709,p0kqwtb8qfg,jaguar,"<div style=""font-size:60px;"">+</div>",null,NA,NA,NA,/Users/martincz/GitHub/COGS119/group_fa24_false_recall/analysis/../data/raw_data/p0kqwtb8qfg_1732221568912.csv
NA,null,html-keyboard-response,36,2.0.0,82211,p0kqwtb8qfg,jaguar,<p>grief</p>,null,NA,NA,NA,/Users/martincz/GitHub/COGS119/group_fa24_false_recall/analysis/../data/raw_data/p0kqwtb8qfg_1732221568912.csv
NA,null,html-keyboard-response,37,2.0.0,83213,p0kqwtb8qfg,jaguar,"<div style=""font-size:60px;"">+</div>",null,NA,NA,NA,/Users/martincz/GitHub/COGS119/group_fa24_false_recall/analysis/../data/raw_data/p0kqwtb8qfg_1732221568912.csv
NA,null,html-keyboard-response,38,2.0.0,84715,p0kqwtb8qfg,jaguar,<p>charred</p>,null,NA,NA,NA,/Users/martincz/GitHub/COGS119/group_fa24_false_recall/analysis/../data/raw_data/p0kqwtb8qfg_1732221568912.csv
NA,null,html-keyboard-response,39,2.0.0,85718,p0kqwtb8qfg,jaguar,"<div style=""font-size:60px;"">+</div>",null,NA,NA,NA,/Users/martincz/GitHub/COGS119/group_fa24_false_recall/analysis/../data/raw_data/p0kqwtb8qfg_1732221568912.csv
NA,null,html-keyboard-response,40,2.0.0,87220,p0kqwtb8qfg,jaguar,<p>white</p>,null,NA,NA,NA,/Users/martincz/GitHub/COGS119/group_fa24_false_recall/analysis/../data/raw_data/p0kqwtb8qfg_1732221568912.csv
NA,null,html-keyboard-response,41,2.0.0,88222,p0kqwtb8qfg,jaguar,"<div style=""font-size:60px;"">+</div>",null,NA,NA,NA,/Users/martincz/GitHub/COGS119/group_fa24_false_recall/analysis/../data/raw_data/p0kqwtb8qfg_1732221568912.csv
NA,null,html-keyboard-response,42,2.0.0,89724,p0kqwtb8qfg,jaguar,<p>cat</p>,null,NA,NA,NA,/Users/martincz/GitHub/COGS119/group_fa24_false_recall/analysis/../data/raw_data/p0kqwtb8qfg_1732221568912.csv
NA,null,html-keyboard-response,43,2.0.0,90726,p0kqwtb8qfg,jaguar,"<div style=""font-size:60px;"">+</div>",null,NA,NA,NA,/Users/martincz/GitHub/COGS119/group_fa24_false_recall/analysis/../data/raw_data/p0kqwtb8qfg_1732221568912.csv
NA,null,html-keyboard-response,44,2.0.0,92231,p0kqwtb8qfg,jaguar,<p>dark</p>,null,NA,NA,NA,/Users/martincz/GitHub/COGS119/group_fa24_false_recall/analysis/../data/raw_data/p0kqwtb8qfg_1732221568912.csv
NA,null,html-keyboard-response,45,2.0.0,93234,p0kqwtb8qfg,jaguar,"<div style=""font-size:60px;"">+</div>",null,NA,NA,NA,/Users/martincz/GitHub/COGS119/group_fa24_false_recall/analysis/../data/raw_data/p0kqwtb8qfg_1732221568912.csv
NA,null,html-keyboard-response,46,2.0.0,94737,p0kqwtb8qfg,jaguar,<p>blue</p>,null,NA,NA,NA,/Users/martincz/GitHub/COGS119/group_fa24_false_recall/analysis/../data/raw_data/p0kqwtb8qfg_1732221568912.csv
NA,null,html-keyboard-response,47,2.0.0,95739,p0kqwtb8qfg,jaguar,"<div style=""font-size:60px;"">+</div>",null,NA,NA,NA,/Users/martincz/GitHub/COGS119/group_fa24_false_recall/analysis/../data/raw_data/p0kqwtb8qfg_1732221568912.csv
NA,null,html-keyboard-response,48,2.0.0,97241,p0kqwtb8qfg,jaguar,<p>color</p>,null,NA,NA,NA,/Users/martincz/GitHub/COGS119/group_fa24_false_recall/analysis/../data/raw_data/p0kqwtb8qfg_1732221568912.csv
NA,null,html-keyboard-response,49,2.0.0,98244,p0kqwtb8qfg,jaguar,"<div style=""font-size:60px;"">+</div>",null,NA,NA,NA,/Users/martincz/GitHub/COGS119/group_fa24_false_recall/analysis/../data/raw_data/p0kqwtb8qfg_1732221568912.csv
NA,null,html-keyboard-response,50,2.0.0,99746,p0kqwtb8qfg,jaguar,<p>ink</p>,null,NA,NA,NA,/Users/martincz/GitHub/COGS119/group_fa24_false_recall/analysis/../data/raw_data/p0kqwtb8qfg_1732221568912.csv
NA,null,html-keyboard-response,51,2.0.0,100748,p0kqwtb8qfg,jaguar,"<div style=""font-size:60px;"">+</div>",null,NA,NA,NA,/Users/martincz/GitHub/COGS119/group_fa24_false_recall/analysis/../data/raw_data/p0kqwtb8qfg_1732221568912.csv
NA,null,html-keyboard-response,52,2.0.0,102251,p0kqwtb8qfg,jaguar,<p>funeral</p>,null,NA,NA,NA,/Users/martincz/GitHub/COGS119/group_fa24_false_recall/analysis/../data/raw_data/p0kqwtb8qfg_1732221568912.csv
NA,null,html-keyboard-response,53,2.0.0,104253,p0kqwtb8qfg,jaguar,<h3>List 3 </h3>,null,NA,NA,NA,/Users/martincz/GitHub/COGS119/group_fa24_false_recall/analysis/../data/raw_data/p0kqwtb8qfg_1732221568912.csv
NA,null,html-keyboard-response,54,2.0.0,105256,p0kqwtb8qfg,jaguar,"<div style=""font-size:60px;"">+</div>",null,NA,NA,NA,/Users/martincz/GitHub/COGS119/group_fa24_false_recall/analysis/../data/raw_data/p0kqwtb8qfg_1732221568912.csv
NA,null,html-keyboard-response,55,2.0.0,106758,p0kqwtb8qfg,jaguar,<p>ire</p>,null,NA,NA,NA,/Users/martincz/GitHub/COGS119/group_fa24_false_recall/analysis/../data/raw_data/p0kqwtb8qfg_1732221568912.csv
NA,null,html-keyboard-response,56,2.0.0,107760,p0kqwtb8qfg,jaguar,"<div style=""font-size:60px;"">+</div>",null,NA,NA,NA,/Users/martincz/GitHub/COGS119/group_fa24_false_recall/analysis/../data/raw_data/p0kqwtb8qfg_1732221568912.csv
NA,null,html-keyboard-response,57,2.0.0,109263,p0kqwtb8qfg,jaguar,<p>mad</p>,null,NA,NA,NA,/Users/martincz/GitHub/COGS119/group_fa24_false_recall/analysis/../data/raw_data/p0kqwtb8qfg_1732221568912.csv
NA,null,html-keyboard-response,58,2.0.0,110265,p0kqwtb8qfg,jaguar,"<div style=""font-size:60px;"">+</div>",null,NA,NA,NA,/Users/martincz/GitHub/COGS119/group_fa24_false_recall/analysis/../data/raw_data/p0kqwtb8qfg_1732221568912.csv
NA,null,html-keyboard-response,59,2.0.0,111767,p0kqwtb8qfg,jaguar,<p>mean</p>,null,NA,NA,NA,/Users/martincz/GitHub/COGS119/group_fa24_false_recall/analysis/../data/raw_data/p0kqwtb8qfg_1732221568912.csv
NA,null,html-keyboard-response,60,2.0.0,112770,p0kqwtb8qfg,jaguar,"<div style=""font-size:60px;"">+</div>",null,NA,NA,NA,/Users/martincz/GitHub/COGS119/group_fa24_false_recall/analysis/../data/raw_data/p0kqwtb8qfg_1732221568912.csv
NA,null,html-keyboard-response,61,2.0.0,114272,p0kqwtb8qfg,jaguar,<p>wrath</p>,null,NA,NA,NA,/Users/martincz/GitHub/COGS119/group_fa24_false_recall/analysis/../data/raw_data/p0kqwtb8qfg_1732221568912.csv
NA,null,html-keyboard-response,62,2.0.0,115274,p0kqwtb8qfg,jaguar,"<div style=""font-size:60px;"">+</div>",null,NA,NA,NA,/Users/martincz/GitHub/COGS119/group_fa24_false_recall/analysis/../data/raw_data/p0kqwtb8qfg_1732221568912.csv
NA,null,html-keyboard-response,63,2.0.0,116777,p0kqwtb8qfg,jaguar,<p>fight</p>,null,NA,NA,NA,/Users/martincz/GitHub/COGS119/group_fa24_false_recall/analysis/../data/raw_data/p0kqwtb8qfg_1732221568912.csv
NA,null,html-keyboard-response,64,2.0.0,117779,p0kqwtb8qfg,jaguar,"<div style=""font-size:60px;"">+</div>",null,NA,NA,NA,/Users/martincz/GitHub/COGS119/group_fa24_false_recall/analysis/../data/raw_data/p0kqwtb8qfg_1732221568912.csv
NA,null,html-keyboard-response,65,2.0.0,119281,p0kqwtb8qfg,jaguar,<p>fear</p>,null,NA,NA,NA,/Users/martincz/GitHub/COGS119/group_fa24_false_recall/analysis/../data/raw_data/p0kqwtb8qfg_1732221568912.csv
NA,null,html-keyboard-response,66,2.0.0,120283,p0kqwtb8qfg,jaguar,"<div style=""font-size:60px;"">+</div>",null,NA,NA,NA,/Users/martincz/GitHub/COGS119/group_fa24_false_recall/analysis/../data/raw_data/p0kqwtb8qfg_1732221568912.csv
NA,null,html-keyboard-response,67,2.0.0,121786,p0kqwtb8qfg,jaguar,<p>happy</p>,null,NA,NA,NA,/Users/martincz/GitHub/COGS119/group_fa24_false_recall/analysis/../data/raw_data/p0kqwtb8qfg_1732221568912.csv
NA,null,html-keyboard-response,68,2.0.0,122788,p0kqwtb8qfg,jaguar,"<div style=""font-size:60px;"">+</div>",null,NA,NA,NA,/Users/martincz/GitHub/COGS119/group_fa24_false_recall/analysis/../data/raw_data/p0kqwtb8qfg_1732221568912.csv
NA,null,html-keyboard-response,69,2.0.0,124290,p0kqwtb8qfg,jaguar,<p>rage</p>,null,NA,NA,NA,/Users/martincz/GitHub/COGS119/group_fa24_false_recall/analysis/../data/raw_data/p0kqwtb8qfg_1732221568912.csv
NA,null,html-keyboard-response,70,2.0.0,125292,p0kqwtb8qfg,jaguar,"<div style=""font-size:60px;"">+</div>",null,NA,NA,NA,/Users/martincz/GitHub/COGS119/group_fa24_false_recall/analysis/../data/raw_data/p0kqwtb8qfg_1732221568912.csv
NA,null,html-keyboard-response,71,2.0.0,126795,p0kqwtb8qfg,jaguar,<p>temper</p>,null,NA,NA,NA,/Users/martincz/GitHub/COGS119/group_fa24_false_recall/analysis/../data/raw_data/p0kqwtb8qfg_1732221568912.csv
NA,null,html-keyboard-response,72,2.0.0,127797,p0kqwtb8qfg,jaguar,"<div style=""font-size:60px;"">+</div>",null,NA,NA,NA,/Users/martincz/GitHub/COGS119/group_fa24_false_recall/analysis/../data/raw_data/p0kqwtb8qfg_1732221568912.csv
NA,null,html-keyboard-response,73,2.0.0,129300,p0kqwtb8qfg,jaguar,<p>fury</p>,null,NA,NA,NA,/Users/martincz/GitHub/COGS119/group_fa24_false_recall/analysis/../data/raw_data/p0kqwtb8qfg_1732221568912.csv
NA,null,html-keyboard-response,74,2.0.0,130302,p0kqwtb8qfg,jaguar,"<div style=""font-size:60px;"">+</div>",null,NA,NA,NA,/Users/martincz/GitHub/COGS119/group_fa24_false_recall/analysis/../data/raw_data/p0kqwtb8qfg_1732221568912.csv
NA,null,html-keyboard-response,75,2.0.0,131804,p0kqwtb8qfg,jaguar,<p>hatred</p>,null,NA,NA,NA,/Users/martincz/GitHub/COGS119/group_fa24_false_recall/analysis/../data/raw_data/p0kqwtb8qfg_1732221568912.csv
NA,null,html-keyboard-response,76,2.0.0,132806,p0kqwtb8qfg,jaguar,"<div style=""font-size:60px;"">+</div>",null,NA,NA,NA,/Users/martincz/GitHub/COGS119/group_fa24_false_recall/analysis/../data/raw_data/p0kqwtb8qfg_1732221568912.csv
NA,null,html-keyboard-response,77,2.0.0,134309,p0kqwtb8qfg,jaguar,<p>hate</p>,null,NA,NA,NA,/Users/martincz/GitHub/COGS119/group_fa24_false_recall/analysis/../data/raw_data/p0kqwtb8qfg_1732221568912.csv
NA,null,html-keyboard-response,78,2.0.0,136312,p0kqwtb8qfg,jaguar,<h3>List 4 </h3>,null,NA,NA,NA,/Users/martincz/GitHub/COGS119/group_fa24_false_recall/analysis/../data/raw_data/p0kqwtb8qfg_1732221568912.csv
NA,null,html-keyboard-response,79,2.0.0,137315,p0kqwtb8qfg,jaguar,"<div style=""font-size:60px;"">+</div>",null,NA,NA,NA,/Users/martincz/GitHub/COGS119/group_fa24_false_recall/analysis/../data/raw_data/p0kqwtb8qfg_1732221568912.csv
NA,null,html-keyboard-response,80,2.0.0,138817,p0kqwtb8qfg,jaguar,<p>table</p>,null,NA,NA,NA,/Users/martincz/GitHub/COGS119/group_fa24_false_recall/analysis/../data/raw_data/p0kqwtb8qfg_1732221568912.csv
NA,null,html-keyboard-response,81,2.0.0,139820,p0kqwtb8qfg,jaguar,"<div style=""font-size:60px;"">+</div>",null,NA,NA,NA,/Users/martincz/GitHub/COGS119/group_fa24_false_recall/analysis/../data/raw_data/p0kqwtb8qfg_1732221568912.csv
NA,null,html-keyboard-response,82,2.0.0,141322,p0kqwtb8qfg,jaguar,<p>stool</p>,null,NA,NA,NA,/Users/martincz/GitHub/COGS119/group_fa24_false_recall/analysis/../data/raw_data/p0kqwtb8qfg_1732221568912.csv
NA,null,html-keyboard-response,83,2.0.0,142325,p0kqwtb8qfg,jaguar,"<div style=""font-size:60px;"">+</div>",null,NA,NA,NA,/Users/martincz/GitHub/COGS119/group_fa24_false_recall/analysis/../data/raw_data/p0kqwtb8qfg_1732221568912.csv
NA,null,html-keyboard-response,84,2.0.0,143827,p0kqwtb8qfg,jaguar,<p>desk</p>,null,NA,NA,NA,/Users/martincz/GitHub/COGS119/group_fa24_false_recall/analysis/../data/raw_data/p0kqwtb8qfg_1732221568912.csv
NA,null,html-keyboard-response,85,2.0.0,144830,p0kqwtb8qfg,jaguar,"<div style=""font-size:60px;"">+</div>",null,NA,NA,NA,/Users/martincz/GitHub/COGS119/group_fa24_false_recall/analysis/../data/raw_data/p0kqwtb8qfg_1732221568912.csv
NA,null,html-keyboard-response,86,2.0.0,146332,p0kqwtb8qfg,jaguar,<p>cushion</p>,null,NA,NA,NA,/Users/martincz/GitHub/COGS119/group_fa24_false_recall/analysis/../data/raw_data/p0kqwtb8qfg_1732221568912.csv
NA,null,html-keyboard-response,87,2.0.0,147334,p0kqwtb8qfg,jaguar,"<div style=""font-size:60px;"">+</div>",null,NA,NA,NA,/Users/martincz/GitHub/COGS119/group_fa24_false_recall/analysis/../data/raw_data/p0kqwtb8qfg_1732221568912.csv
NA,null,html-keyboard-response,88,2.0.0,148837,p0kqwtb8qfg,jaguar,<p>swivel</p>,null,NA,NA,NA,/Users/martincz/GitHub/COGS119/group_fa24_false_recall/analysis/../data/raw_data/p0kqwtb8qfg_1732221568912.csv
NA,null,html-keyboard-response,89,2.0.0,149840,p0kqwtb8qfg,jaguar,"<div style=""font-size:60px;"">+</div>",null,NA,NA,NA,/Users/martincz/GitHub/COGS119/group_fa24_false_recall/analysis/../data/raw_data/p0kqwtb8qfg_1732221568912.csv
NA,null,html-keyboard-response,90,2.0.0,151342,p0kqwtb8qfg,jaguar,<p>wood</p>,null,NA,NA,NA,/Users/martincz/GitHub/COGS119/group_fa24_false_recall/analysis/../data/raw_data/p0kqwtb8qfg_1732221568912.csv
NA,null,html-keyboard-response,91,2.0.0,152344,p0kqwtb8qfg,jaguar,"<div style=""font-size:60px;"">+</div>",null,NA,NA,NA,/Users/martincz/GitHub/COGS119/group_fa24_false_recall/analysis/../data/raw_data/p0kqwtb8qfg_1732221568912.csv
NA,null,html-keyboard-response,92,2.0.0,153846,p0kqwtb8qfg,jaguar,<p>sofa</p>,null,NA,NA,NA,/Users/martincz/GitHub/COGS119/group_fa24_false_recall/analysis/../data/raw_data/p0kqwtb8qfg_1732221568912.csv
NA,null,html-keyboard-response,93,2.0.0,154848,p0kqwtb8qfg,jaguar,"<div style=""font-size:60px;"">+</div>",null,NA,NA,NA,/Users/martincz/GitHub/COGS119/group_fa24_false_recall/analysis/../data/raw_data/p0kqwtb8qfg_1732221568912.csv
NA,null,html-keyboard-response,94,2.0.0,156350,p0kqwtb8qfg,jaguar,<p>couch</p>,null,NA,NA,NA,/Users/martincz/GitHub/COGS119/group_fa24_false_recall/analysis/../data/raw_data/p0kqwtb8qfg_1732221568912.csv
NA,null,html-keyboard-response,95,2.0.0,157353,p0kqwtb8qfg,jaguar,"<div style=""font-size:60px;"">+</div>",null,NA,NA,NA,/Users/martincz/GitHub/COGS119/group_fa24_false_recall/analysis/../data/raw_data/p0kqwtb8qfg_1732221568912.csv
NA,null,html-keyboard-response,96,2.0.0,158855,p0kqwtb8qfg,jaguar,<p>recliner</p>,null,NA,NA,NA,/Users/martincz/GitHub/COGS119/group_fa24_false_recall/analysis/../data/raw_data/p0kqwtb8qfg_1732221568912.csv
NA,null,html-keyboard-response,97,2.0.0,159858,p0kqwtb8qfg,jaguar,"<div style=""font-size:60px;"">+</div>",null,NA,NA,NA,/Users/martincz/GitHub/COGS119/group_fa24_false_recall/analysis/../data/raw_data/p0kqwtb8qfg_1732221568912.csv
NA,null,html-keyboard-response,98,2.0.0,161362,p0kqwtb8qfg,jaguar,<p>seat</p>,null,NA,NA,NA,/Users/martincz/GitHub/COGS119/group_fa24_false_recall/analysis/../data/raw_data/p0kqwtb8qfg_1732221568912.csv
NA,null,html-keyboard-response,99,2.0.0,162364,p0kqwtb8qfg,jaguar,"<div style=""font-size:60px;"">+</div>",null,NA,NA,NA,/Users/martincz/GitHub/COGS119/group_fa24_false_recall/analysis/../data/raw_data/p0kqwtb8qfg_1732221568912.csv
NA,null,html-keyboard-response,100,2.0.0,163867,p0kqwtb8qfg,jaguar,<p>sit</p>,null,NA,NA,NA,/Users/martincz/GitHub/COGS119/group_fa24_false_recall/analysis/../data/raw_data/p0kqwtb8qfg_1732221568912.csv
NA,null,html-keyboard-response,101,2.0.0,164870,p0kqwtb8qfg,jaguar,"<div style=""font-size:60px;"">+</div>",null,NA,NA,NA,/Users/martincz/GitHub/COGS119/group_fa24_false_recall/analysis/../data/raw_data/p0kqwtb8qfg_1732221568912.csv
NA,null,html-keyboard-response,102,2.0.0,166372,p0kqwtb8qfg,jaguar,<p>legs</p>,null,NA,NA,NA,/Users/martincz/GitHub/COGS119/group_fa24_false_recall/analysis/../data/raw_data/p0kqwtb8qfg_1732221568912.csv
NA,null,html-keyboard-response,103,2.0.0,168374,p0kqwtb8qfg,jaguar,<h3>List 5 </h3>,null,NA,NA,NA,/Users/martincz/GitHub/COGS119/group_fa24_false_recall/analysis/../data/raw_data/p0kqwtb8qfg_1732221568912.csv
NA,null,html-keyboard-response,104,2.0.0,169377,p0kqwtb8qfg,jaguar,"<div style=""font-size:60px;"">+</div>",null,NA,NA,NA,/Users/martincz/GitHub/COGS119/group_fa24_false_recall/analysis/../data/raw_data/p0kqwtb8qfg_1732221568912.csv
NA,null,html-keyboard-response,105,2.0.0,170879,p0kqwtb8qfg,jaguar,<p>ill</p>,null,NA,NA,NA,/Users/martincz/GitHub/COGS119/group_fa24_false_recall/analysis/../data/raw_data/p0kqwtb8qfg_1732221568912.csv
NA,null,html-keyboard-response,106,2.0.0,171882,p0kqwtb8qfg,jaguar,"<div style=""font-size:60px;"">+</div>",null,NA,NA,NA,/Users/martincz/GitHub/COGS119/group_fa24_false_recall/analysis/../data/raw_data/p0kqwtb8qfg_1732221568912.csv
NA,null,html-keyboard-response,107,2.0.0,173386,p0kqwtb8qfg,jaguar,<p>stethoscope</p>,null,NA,NA,NA,/Users/martincz/GitHub/COGS119/group_fa24_false_recall/analysis/../data/raw_data/p0kqwtb8qfg_1732221568912.csv
NA,null,html-keyboard-response,108,2.0.0,174390,p0kqwtb8qfg,jaguar,"<div style=""font-size:60px;"">+</div>",null,NA,NA,NA,/Users/martincz/GitHub/COGS119/group_fa24_false_recall/analysis/../data/raw_data/p0kqwtb8qfg_1732221568912.csv
NA,null,html-keyboard-response,109,2.0.0,175892,p0kqwtb8qfg,jaguar,<p>lawyer</p>,null,NA,NA,NA,/Users/martincz/GitHub/COGS119/group_fa24_false_recall/analysis/../data/raw_data/p0kqwtb8qfg_1732221568912.csv
NA,null,html-keyboard-response,110,2.0.0,176896,p0kqwtb8qfg,jaguar,"<div style=""font-size:60px;"">+</div>",null,NA,NA,NA,/Users/martincz/GitHub/COGS119/group_fa24_false_recall/analysis/../data/raw_data/p0kqwtb8qfg_1732221568912.csv
NA,null,html-keyboard-response,111,2.0.0,178399,p0kqwtb8qfg,jaguar,<p>nurse</p>,null,NA,NA,NA,/Users/martincz/GitHub/COGS119/group_fa24_false_recall/analysis/../data/raw_data/p0kqwtb8qfg_1732221568912.csv
NA,null,html-keyboard-response,112,2.0.0,179401,p0kqwtb8qfg,jaguar,"<div style=""font-size:60px;"">+</div>",null,NA,NA,NA,/Users/martincz/GitHub/COGS119/group_fa24_false_recall/analysis/../data/raw_data/p0kqwtb8qfg_1732221568912.csv
NA,null,html-keyboard-response,113,2.0.0,180904,p0kqwtb8qfg,jaguar,<p>medicine</p>,null,NA,NA,NA,/Users/martincz/GitHub/COGS119/group_fa24_false_recall/analysis/../data/raw_data/p0kqwtb8qfg_1732221568912.csv
NA,null,html-keyboard-response,114,2.0.0,181906,p0kqwtb8qfg,jaguar,"<div style=""font-size:60px;"">+</div>",null,NA,NA,NA,/Users/martincz/GitHub/COGS119/group_fa24_false_recall/analysis/../data/raw_data/p0kqwtb8qfg_1732221568912.csv
NA,null,html-keyboard-response,115,2.0.0,183408,p0kqwtb8qfg,jaguar,<p>office</p>,null,NA,NA,NA,/Users/martincz/GitHub/COGS119/group_fa24_false_recall/analysis/../data/raw_data/p0kqwtb8qfg_1732221568912.csv
NA,null,html-keyboard-response,116,2.0.0,184410,p0kqwtb8qfg,jaguar,"<div style=""font-size:60px;"">+</div>",null,NA,NA,NA,/Users/martincz/GitHub/COGS119/group_fa24_false_recall/analysis/../data/raw_data/p0kqwtb8qfg_1732221568912.csv
NA,null,html-keyboard-response,117,2.0.0,185912,p0kqwtb8qfg,jaguar,<p>dentist</p>,null,NA,NA,NA,/Users/martincz/GitHub/COGS119/group_fa24_false_recall/analysis/../data/raw_data/p0kqwtb8qfg_1732221568912.csv
NA,null,html-keyboard-response,118,2.0.0,186915,p0kqwtb8qfg,jaguar,"<div style=""font-size:60px;"">+</div>",null,NA,NA,NA,/Users/martincz/GitHub/COGS119/group_fa24_false_recall/analysis/../data/raw_data/p0kqwtb8qfg_1732221568912.csv
NA,null,html-keyboard-response,119,2.0.0,188418,p0kqwtb8qfg,jaguar,<p>patient</p>,null,NA,NA,NA,/Users/martincz/GitHub/COGS119/group_fa24_false_recall/analysis/../data/raw_data/p0kqwtb8qfg_1732221568912.csv
NA,null,html-keyboard-response,120,2.0.0,189421,p0kqwtb8qfg,jaguar,"<div style=""font-size:60px;"">+</div>",null,NA,NA,NA,/Users/martincz/GitHub/COGS119/group_fa24_false_recall/analysis/../data/raw_data/p0kqwtb8qfg_1732221568912.csv
NA,null,html-keyboard-response,121,2.0.0,190924,p0kqwtb8qfg,jaguar,<p>sick</p>,null,NA,NA,NA,/Users/martincz/GitHub/COGS119/group_fa24_false_recall/analysis/../data/raw_data/p0kqwtb8qfg_1732221568912.csv
NA,null,html-keyboard-response,122,2.0.0,191927,p0kqwtb8qfg,jaguar,"<div style=""font-size:60px;"">+</div>",null,NA,NA,NA,/Users/martincz/GitHub/COGS119/group_fa24_false_recall/analysis/../data/raw_data/p0kqwtb8qfg_1732221568912.csv
NA,null,html-keyboard-response,123,2.0.0,193429,p0kqwtb8qfg,jaguar,<p>hospital</p>,null,NA,NA,NA,/Users/martincz/GitHub/COGS119/group_fa24_false_recall/analysis/../data/raw_data/p0kqwtb8qfg_1732221568912.csv
NA,null,html-keyboard-response,124,2.0.0,194431,p0kqwtb8qfg,jaguar,"<div style=""font-size:60px;"">+</div>",null,NA,NA,NA,/Users/martincz/GitHub/COGS119/group_fa24_false_recall/analysis/../data/raw_data/p0kqwtb8qfg_1732221568912.csv
NA,null,html-keyboard-response,125,2.0.0,195934,p0kqwtb8qfg,jaguar,<p>physician</p>,null,NA,NA,NA,/Users/martincz/GitHub/COGS119/group_fa24_false_recall/analysis/../data/raw_data/p0kqwtb8qfg_1732221568912.csv
NA,null,html-keyboard-response,126,2.0.0,196936,p0kqwtb8qfg,jaguar,"<div style=""font-size:60px;"">+</div>",null,NA,NA,NA,/Users/martincz/GitHub/COGS119/group_fa24_false_recall/analysis/../data/raw_data/p0kqwtb8qfg_1732221568912.csv
NA,null,html-keyboard-response,127,2.0.0,198438,p0kqwtb8qfg,jaguar,<p>health</p>,null,NA,NA,NA,/Users/martincz/GitHub/COGS119/group_fa24_false_recall/analysis/../data/raw_data/p0kqwtb8qfg_1732221568912.csv
NA,null,html-keyboard-response,128,2.0.0,200442,p0kqwtb8qfg,jaguar,<h3>List 6 </h3>,null,NA,NA,NA,/Users/martincz/GitHub/COGS119/group_fa24_false_recall/analysis/../data/raw_data/p0kqwtb8qfg_1732221568912.csv
NA,null,html-keyboard-response,129,2.0.0,201445,p0kqwtb8qfg,jaguar,"<div style=""font-size:60px;"">+</div>",null,NA,NA,NA,/Users/martincz/GitHub/COGS119/group_fa24_false_recall/analysis/../data/raw_data/p0kqwtb8qfg_1732221568912.csv
NA,null,html-keyboard-response,130,2.0.0,202947,p0kqwtb8qfg,jaguar,<p>heat</p>,null,NA,NA,NA,/Users/martincz/GitHub/COGS119/group_fa24_false_recall/analysis/../data/raw_data/p0kqwtb8qfg_1732221568912.csv
NA,null,html-keyboard-response,131,2.0.0,203950,p0kqwtb8qfg,jaguar,"<div style=""font-size:60px;"">+</div>",null,NA,NA,NA,/Users/martincz/GitHub/COGS119/group_fa24_false_recall/analysis/../data/raw_data/p0kqwtb8qfg_1732221568912.csv
NA,null,html-keyboard-response,132,2.0.0,205453,p0kqwtb8qfg,jaguar,<p>snow</p>,null,NA,NA,NA,/Users/martincz/GitHub/COGS119/group_fa24_false_recall/analysis/../data/raw_data/p0kqwtb8qfg_1732221568912.csv
NA,null,html-keyboard-response,133,2.0.0,206456,p0kqwtb8qfg,jaguar,"<div style=""font-size:60px;"">+</div>",null,NA,NA,NA,/Users/martincz/GitHub/COGS119/group_fa24_false_recall/analysis/../data/raw_data/p0kqwtb8qfg_1732221568912.csv
NA,null,html-keyboard-response,134,2.0.0,207957,p0kqwtb8qfg,jaguar,<p>freeze</p>,null,NA,NA,NA,/Users/martincz/GitHub/COGS119/group_fa24_false_recall/analysis/../data/raw_data/p0kqwtb8qfg_1732221568912.csv
NA,null,html-keyboard-response,135,2.0.0,208960,p0kqwtb8qfg,jaguar,"<div style=""font-size:60px;"">+</div>",null,NA,NA,NA,/Users/martincz/GitHub/COGS119/group_fa24_false_recall/analysis/../data/raw_data/p0kqwtb8qfg_1732221568912.csv
NA,null,html-keyboard-response,136,2.0.0,210462,p0kqwtb8qfg,jaguar,<p>weather</p>,null,NA,NA,NA,/Users/martincz/GitHub/COGS119/group_fa24_false_recall/analysis/../data/raw_data/p0kqwtb8qfg_1732221568912.csv
NA,null,html-keyboard-response,137,2.0.0,211464,p0kqwtb8qfg,jaguar,"<div style=""font-size:60px;"">+</div>",null,NA,NA,NA,/Users/martincz/GitHub/COGS119/group_fa24_false_recall/analysis/../data/raw_data/p0kqwtb8qfg_1732221568912.csv
NA,null,html-keyboard-response,138,2.0.0,212966,p0kqwtb8qfg,jaguar,<p>chilly</p>,null,NA,NA,NA,/Users/martincz/GitHub/COGS119/group_fa24_false_recall/analysis/../data/raw_data/p0kqwtb8qfg_1732221568912.csv
NA,null,html-keyboard-response,139,2.0.0,213968,p0kqwtb8qfg,jaguar,"<div style=""font-size:60px;"">+</div>",null,NA,NA,NA,/Users/martincz/GitHub/COGS119/group_fa24_false_recall/analysis/../data/raw_data/p0kqwtb8qfg_1732221568912.csv
NA,null,html-keyboard-response,140,2.0.0,215471,p0kqwtb8qfg,jaguar,<p>air</p>,null,NA,NA,NA,/Users/martincz/GitHub/COGS119/group_fa24_false_recall/analysis/../data/raw_data/p0kqwtb8qfg_1732221568912.csv
NA,null,html-keyboard-response,141,2.0.0,216473,p0kqwtb8qfg,jaguar,"<div style=""font-size:60px;"">+</div>",null,NA,NA,NA,/Users/martincz/GitHub/COGS119/group_fa24_false_recall/analysis/../data/raw_data/p0kqwtb8qfg_1732221568912.csv
NA,null,html-keyboard-response,142,2.0.0,217976,p0kqwtb8qfg,jaguar,<p>warm</p>,null,NA,NA,NA,/Users/martincz/GitHub/COGS119/group_fa24_false_recall/analysis/../data/raw_data/p0kqwtb8qfg_1732221568912.csv
NA,null,html-keyboard-response,143,2.0.0,218978,p0kqwtb8qfg,jaguar,"<div style=""font-size:60px;"">+</div>",null,NA,NA,NA,/Users/martincz/GitHub/COGS119/group_fa24_false_recall/analysis/../data/raw_data/p0kqwtb8qfg_1732221568912.csv
NA,null,html-keyboard-response,144,2.0.0,220480,p0kqwtb8qfg,jaguar,<p>frigid</p>,null,NA,NA,NA,/Users/martincz/GitHub/COGS119/group_fa24_false_recall/analysis/../data/raw_data/p0kqwtb8qfg_1732221568912.csv
NA,null,html-keyboard-response,145,2.0.0,221482,p0kqwtb8qfg,jaguar,"<div style=""font-size:60px;"">+</div>",null,NA,NA,NA,/Users/martincz/GitHub/COGS119/group_fa24_false_recall/analysis/../data/raw_data/p0kqwtb8qfg_1732221568912.csv
NA,null,html-keyboard-response,146,2.0.0,222984,p0kqwtb8qfg,jaguar,<p>ice</p>,null,NA,NA,NA,/Users/martincz/GitHub/COGS119/group_fa24_false_recall/analysis/../data/raw_data/p0kqwtb8qfg_1732221568912.csv
NA,null,html-keyboard-response,147,2.0.0,223987,p0kqwtb8qfg,jaguar,"<div style=""font-size:60px;"">+</div>",null,NA,NA,NA,/Users/martincz/GitHub/COGS119/group_fa24_false_recall/analysis/../data/raw_data/p0kqwtb8qfg_1732221568912.csv
NA,null,html-keyboard-response,148,2.0.0,225489,p0kqwtb8qfg,jaguar,<p>winter</p>,null,NA,NA,NA,/Users/martincz/GitHub/COGS119/group_fa24_false_recall/analysis/../data/raw_data/p0kqwtb8qfg_1732221568912.csv
NA,null,html-keyboard-response,149,2.0.0,226492,p0kqwtb8qfg,jaguar,"<div style=""font-size:60px;"">+</div>",null,NA,NA,NA,/Users/martincz/GitHub/COGS119/group_fa24_false_recall/analysis/../data/raw_data/p0kqwtb8qfg_1732221568912.csv
NA,null,html-keyboard-response,150,2.0.0,227995,p0kqwtb8qfg,jaguar,<p>hot</p>,null,NA,NA,NA,/Users/martincz/GitHub/COGS119/group_fa24_false_recall/analysis/../data/raw_data/p0kqwtb8qfg_1732221568912.csv
NA,null,html-keyboard-response,151,2.0.0,228997,p0kqwtb8qfg,jaguar,"<div style=""font-size:60px;"">+</div>",null,NA,NA,NA,/Users/martincz/GitHub/COGS119/group_fa24_false_recall/analysis/../data/raw_data/p0kqwtb8qfg_1732221568912.csv
NA,null,html-keyboard-response,152,2.0.0,230499,p0kqwtb8qfg,jaguar,<p>wet</p>,null,NA,NA,NA,/Users/martincz/GitHub/COGS119/group_fa24_false_recall/analysis/../data/raw_data/p0kqwtb8qfg_1732221568912.csv
NA,25349,html-keyboard-response,153,2.0.0,255850,p0kqwtb8qfg,jaguar,"Now you will rate your confidence that each word occurred on the list. <p>Please indicate whether you think the word was definitely new, probably new, probably old, or definitely old.</p> <p>Press any key to continue.</P>",NA,NA,NA,NA,/Users/martincz/GitHub/COGS119/group_fa24_false_recall/analysis/../data/raw_data/p0kqwtb8qfg_1732221568912.csv
NA,24936,survey-likert,154,null,280791,p0kqwtb8qfg,jaguar,NA,"{""Q0"":3}",slice,recognition,[0],/Users/martincz/GitHub/COGS119/group_fa24_false_recall/analysis/../data/raw_data/p0kqwtb8qfg_1732221568912.csv
NA,7323,survey-likert,155,null,288117,p0kqwtb8qfg,jaguar,NA,"{""Q0"":1}",drift,recognition,[0],/Users/martincz/GitHub/COGS119/group_fa24_false_recall/analysis/../data/raw_data/p0kqwtb8qfg_1732221568912.csv
NA,2689,survey-likert,156,null,290808,p0kqwtb8qfg,jaguar,NA,"{""Q0"":0}",clock,recognition,[0],/Users/martincz/GitHub/COGS119/group_fa24_false_recall/analysis/../data/raw_data/p0kqwtb8qfg_1732221568912.csv
NA,2526,survey-likert,157,null,293336,p0kqwtb8qfg,jaguar,NA,"{""Q0"":3}",dentist,recognition,[0],/Users/martincz/GitHub/COGS119/group_fa24_false_recall/analysis/../data/raw_data/p0kqwtb8qfg_1732221568912.csv
NA,4147,survey-likert,158,null,297485,p0kqwtb8qfg,jaguar,NA,"{""Q0"":1}",curtain,recognition,[0],/Users/martincz/GitHub/COGS119/group_fa24_false_recall/analysis/../data/raw_data/p0kqwtb8qfg_1732221568912.csv
NA,1433,survey-likert,159,null,298919,p0kqwtb8qfg,jaguar,NA,"{""Q0"":1}",book,recognition,[0],/Users/martincz/GitHub/COGS119/group_fa24_false_recall/analysis/../data/raw_data/p0kqwtb8qfg_1732221568912.csv
NA,1384,survey-likert,160,null,300305,p0kqwtb8qfg,jaguar,NA,"{""Q0"":1}",elephant,recognition,[0],/Users/martincz/GitHub/COGS119/group_fa24_false_recall/analysis/../data/raw_data/p0kqwtb8qfg_1732221568912.csv
NA,3927,survey-likert,161,null,304234,p0kqwtb8qfg,jaguar,NA,"{""Q0"":2}",procedure,recognition,[0],/Users/martincz/GitHub/COGS119/group_fa24_false_recall/analysis/../data/raw_data/p0kqwtb8qfg_1732221568912.csv
NA,2505,survey-likert,162,null,306740,p0kqwtb8qfg,jaguar,NA,"{""Q0"":3}",anger,recognition,[0],/Users/martincz/GitHub/COGS119/group_fa24_false_recall/analysis/../data/raw_data/p0kqwtb8qfg_1732221568912.csv
NA,1573,survey-likert,163,null,308315,p0kqwtb8qfg,jaguar,NA,"{""Q0"":3}",seat,recognition,[0],/Users/martincz/GitHub/COGS119/group_fa24_false_recall/analysis/../data/raw_data/p0kqwtb8qfg_1732221568912.csv
NA,1293,survey-likert,164,null,309610,p0kqwtb8qfg,jaguar,NA,"{""Q0"":3}",cold,recognition,[0],/Users/martincz/GitHub/COGS119/group_fa24_false_recall/analysis/../data/raw_data/p0kqwtb8qfg_1732221568912.csv
NA,2057,survey-likert,165,null,311668,p0kqwtb8qfg,jaguar,NA,"{""Q0"":1}",balloon,recognition,[0],/Users/martincz/GitHub/COGS119/group_fa24_false_recall/analysis/../data/raw_data/p0kqwtb8qfg_1732221568912.csv
NA,4061,survey-likert,166,null,315731,p0kqwtb8qfg,jaguar,NA,"{""Q0"":0}",frame,recognition,[0],/Users/martincz/GitHub/COGS119/group_fa24_false_recall/analysis/../data/raw_data/p0kqwtb8qfg_1732221568912.csv
NA,2648,survey-likert,167,null,318380,p0kqwtb8qfg,jaguar,NA,"{""Q0"":0}",basket,recognition,[0],/Users/martincz/GitHub/COGS119/group_fa24_false_recall/analysis/../data/raw_data/p0kqwtb8qfg_1732221568912.csv
NA,5253,survey-likert,168,null,323635,p0kqwtb8qfg,jaguar,NA,"{""Q0"":2}",oven,recognition,[0],/Users/martincz/GitHub/COGS119/group_fa24_false_recall/analysis/../data/raw_data/p0kqwtb8qfg_1732221568912.csv
NA,2751,survey-likert,169,null,326387,p0kqwtb8qfg,jaguar,NA,"{""Q0"":3}",fear,recognition,[0],/Users/martincz/GitHub/COGS119/group_fa24_false_recall/analysis/../data/raw_data/p0kqwtb8qfg_1732221568912.csv
NA,2179,survey-likert,170,null,328567,p0kqwtb8qfg,jaguar,NA,"{""Q0"":0}",planet,recognition,[0],/Users/martincz/GitHub/COGS119/group_fa24_false_recall/analysis/../data/raw_data/p0kqwtb8qfg_1732221568912.csv
NA,2040,survey-likert,171,null,330609,p0kqwtb8qfg,jaguar,NA,"{""Q0"":1}",guitar,recognition,[0],/Users/martincz/GitHub/COGS119/group_fa24_false_recall/analysis/../data/raw_data/p0kqwtb8qfg_1732221568912.csv
NA,4162,survey-likert,172,null,334773,p0kqwtb8qfg,jaguar,NA,"{""Q0"":0}",noise,recognition,[0],/Users/martincz/GitHub/COGS119/group_fa24_false_recall/analysis/../data/raw_data/p0kqwtb8qfg_1732221568912.csv
NA,1333,survey-likert,173,null,336108,p0kqwtb8qfg,jaguar,NA,"{""Q0"":0}",lighthouse,recognition,[0],/Users/martincz/GitHub/COGS119/group_fa24_false_recall/analysis/../data/raw_data/p0kqwtb8qfg_1732221568912.csv
NA,1919,survey-likert,174,null,338029,p0kqwtb8qfg,jaguar,NA,"{""Q0"":3}",black,recognition,[0],/Users/martincz/GitHub/COGS119/group_fa24_false_recall/analysis/../data/raw_data/p0kqwtb8qfg_1732221568912.csv
NA,4373,survey-likert,175,null,342404,p0kqwtb8qfg,jaguar,NA,"{""Q0"":3}",doctor,recognition,[0],/Users/martincz/GitHub/COGS119/group_fa24_false_recall/analysis/../data/raw_data/p0kqwtb8qfg_1732221568912.csv
NA,2970,survey-likert,176,null,345376,p0kqwtb8qfg,jaguar,NA,"{""Q0"":3}",swivel,recognition,[0],/Users/martincz/GitHub/COGS119/group_fa24_false_recall/analysis/../data/raw_data/p0kqwtb8qfg_1732221568912.csv
NA,1699,survey-likert,177,null,347077,p0kqwtb8qfg,jaguar,NA,"{""Q0"":2}",shade,recognition,[0],/Users/martincz/GitHub/COGS119/group_fa24_false_recall/analysis/../data/raw_data/p0kqwtb8qfg_1732221568912.csv
NA,2446,survey-likert,178,null,349525,p0kqwtb8qfg,jaguar,NA,"{""Q0"":3}",jam,recognition,[0],/Users/martincz/GitHub/COGS119/group_fa24_false_recall/analysis/../data/raw_data/p0kqwtb8qfg_1732221568912.csv
NA,1170,survey-likert,179,null,350697,p0kqwtb8qfg,jaguar,NA,"{""Q0"":3}",bread,recognition,[0],/Users/martincz/GitHub/COGS119/group_fa24_false_recall/analysis/../data/raw_data/p0kqwtb8qfg_1732221568912.csv
NA,3132,survey-likert,180,null,353831,p0kqwtb8qfg,jaguar,NA,"{""Q0"":0}",river,recognition,[0],/Users/martincz/GitHub/COGS119/group_fa24_false_recall/analysis/../data/raw_data/p0kqwtb8qfg_1732221568912.csv
NA,1408,survey-likert,181,null,355241,p0kqwtb8qfg,jaguar,NA,"{""Q0"":0}",mountain,recognition,[0],/Users/martincz/GitHub/COGS119/group_fa24_false_recall/analysis/../data/raw_data/p0kqwtb8qfg_1732221568912.csv
NA,1855,survey-likert,182,null,357098,p0kqwtb8qfg,jaguar,NA,"{""Q0"":1}",window,recognition,[0],/Users/martincz/GitHub/COGS119/group_fa24_false_recall/analysis/../data/raw_data/p0kqwtb8qfg_1732221568912.csv
NA,1812,survey-likert,183,null,358912,p0kqwtb8qfg,jaguar,NA,"{""Q0"":3}",ill,recognition,[0],/Users/martincz/GitHub/COGS119/group_fa24_false_recall/analysis/../data/raw_data/p0kqwtb8qfg_1732221568912.csv
NA,1514,survey-likert,184,null,360428,p0kqwtb8qfg,jaguar,NA,"{""Q0"":3}",cat,recognition,[0],/Users/martincz/GitHub/COGS119/group_fa24_false_recall/analysis/../data/raw_data/p0kqwtb8qfg_1732221568912.csv
NA,2001,survey-likert,185,null,362431,p0kqwtb8qfg,jaguar,NA,"{""Q0"":0}",void,recognition,[0],/Users/martincz/GitHub/COGS119/group_fa24_false_recall/analysis/../data/raw_data/p0kqwtb8qfg_1732221568912.csv
NA,1305,survey-likert,186,null,363738,p0kqwtb8qfg,jaguar,NA,"{""Q0"":0}",balance,recognition,[0],/Users/martincz/GitHub/COGS119/group_fa24_false_recall/analysis/../data/raw_data/p0kqwtb8qfg_1732221568912.csv
NA,2705,survey-likert,187,null,366446,p0kqwtb8qfg,jaguar,NA,"{""Q0"":2}",winter,recognition,[0],/Users/martincz/GitHub/COGS119/group_fa24_false_recall/analysis/../data/raw_data/p0kqwtb8qfg_1732221568912.csv
NA,2847,survey-likert,188,null,369295,p0kqwtb8qfg,jaguar,NA,"{""Q0"":3}",fight,recognition,[0],/Users/martincz/GitHub/COGS119/group_fa24_false_recall/analysis/../data/raw_data/p0kqwtb8qfg_1732221568912.csv
NA,1179,survey-likert,189,null,370475,p0kqwtb8qfg,jaguar,NA,"{""Q0"":3}",chair,recognition,[0],/Users/martincz/GitHub/COGS119/group_fa24_false_recall/analysis/../data/raw_data/p0kqwtb8qfg_1732221568912.csv
NA,885,survey-likert,190,null,371362,p0kqwtb8qfg,jaguar,NA,"{""Q0"":3}",blue,recognition,[0],/Users/martincz/GitHub/COGS119/group_fa24_false_recall/analysis/../data/raw_data/p0kqwtb8qfg_1732221568912.csv
NA,962,survey-likert,191,null,372326,p0kqwtb8qfg,jaguar,NA,"{""Q0"":3}",freeze,recognition,[0],/Users/martincz/GitHub/COGS119/group_fa24_false_recall/analysis/../data/raw_data/p0kqwtb8qfg_1732221568912.csv
NA,2181,survey-likert,192,null,374509,p0kqwtb8qfg,jaguar,NA,"{""Q0"":0}",attention,recognition,[0],/Users/martincz/GitHub/COGS119/group_fa24_false_recall/analysis/../data/raw_data/p0kqwtb8qfg_1732221568912.csv
NA,1698,survey-likert,193,null,376209,p0kqwtb8qfg,jaguar,NA,"{""Q0"":0}",laptop,recognition,[0],/Users/martincz/GitHub/COGS119/group_fa24_false_recall/analysis/../data/raw_data/p0kqwtb8qfg_1732221568912.csv
NA,1154,survey-likert,194,null,377365,p0kqwtb8qfg,jaguar,NA,"{""Q0"":0}",camera,recognition,[0],/Users/martincz/GitHub/COGS119/group_fa24_false_recall/analysis/../data/raw_data/p0kqwtb8qfg_1732221568912.csv
NA,2551,survey-likert,195,null,379918,p0kqwtb8qfg,jaguar,NA,"{""Q0"":2}",conflict,recognition,[0],/Users/martincz/GitHub/COGS119/group_fa24_false_recall/analysis/../data/raw_data/p0kqwtb8qfg_1732221568912.csv
NA,118971,survey-text,196,2.0.0,498921,p0kqwtb8qfg,jaguar,NA,"{""age"":""32"",""gender"":""male"",""Q2"":""To test the relationship between how well a word fits into a group and how well you can remember it"",""Q3"":""Sometimes pressing a key did not take me to the next screen""}",NA,NA,NA,/Users/martincz/GitHub/COGS119/group_fa24_false_recall/analysis/../data/raw_data/p0kqwtb8qfg_1732221568912.csv
TRUE,2241,fullscreen,0,null,3246,p3awyfzqtp5,eagle,NA,NA,NA,NA,NA,/Users/martincz/GitHub/COGS119/group_fa24_false_recall/analysis/../data/raw_data/p3awyfzqtp5_1732222058784.csv
NA,27350,html-keyboard-response,1,2.0.0,30600,p3awyfzqtp5,eagle,"Welcome to the Fasle Recall Experiment.<p>You will see and listen to 6 lists of 12-words one at a time. Try to remember as many as you can.</p><p>After the list, you’ll be asked to complete a recognition test.</p><p>Press any key to begin.</p>",NA,NA,NA,NA,/Users/martincz/GitHub/COGS119/group_fa24_false_recall/analysis/../data/raw_data/p3awyfzqtp5_1732222058784.csv
NA,3989,survey-text,2,2.0.0,34594,p3awyfzqtp5,eagle,NA,"{""participant_id"":""eagle""}",NA,NA,NA,/Users/martincz/GitHub/COGS119/group_fa24_false_recall/analysis/../data/raw_data/p3awyfzqtp5_1732222058784.csv
NA,null,html-keyboard-response,3,2.0.0,36597,p3awyfzqtp5,eagle,<h3>List 1 </h3>,null,NA,NA,NA,/Users/martincz/GitHub/COGS119/group_fa24_false_recall/analysis/../data/raw_data/p3awyfzqtp5_1732222058784.csv
NA,null,html-keyboard-response,4,2.0.0,37601,p3awyfzqtp5,eagle,"<div style=""font-size:60px;"">+</div>",null,NA,NA,NA,/Users/martincz/GitHub/COGS119/group_fa24_false_recall/analysis/../data/raw_data/p3awyfzqtp5_1732222058784.csv
NA,null,html-keyboard-response,5,2.0.0,39103,p3awyfzqtp5,eagle,<p>hatred</p>,null,NA,NA,NA,/Users/martincz/GitHub/COGS119/group_fa24_false_recall/analysis/../data/raw_data/p3awyfzqtp5_1732222058784.csv
NA,null,html-keyboard-response,6,2.0.0,40105,p3awyfzqtp5,eagle,"<div style=""font-size:60px;"">+</div>",null,NA,NA,NA,/Users/martincz/GitHub/COGS119/group_fa24_false_recall/analysis/../data/raw_data/p3awyfzqtp5_1732222058784.csv
NA,null,html-keyboard-response,7,2.0.0,41607,p3awyfzqtp5,eagle,<p>rage</p>,null,NA,NA,NA,/Users/martincz/GitHub/COGS119/group_fa24_false_recall/analysis/../data/raw_data/p3awyfzqtp5_1732222058784.csv
NA,null,html-keyboard-response,8,2.0.0,42611,p3awyfzqtp5,eagle,"<div style=""font-size:60px;"">+</div>",null,NA,NA,NA,/Users/martincz/GitHub/COGS119/group_fa24_false_recall/analysis/../data/raw_data/p3awyfzqtp5_1732222058784.csv
NA,null,html-keyboard-response,9,2.0.0,44114,p3awyfzqtp5,eagle,<p>wrath</p>,null,NA,NA,NA,/Users/martincz/GitHub/COGS119/group_fa24_false_recall/analysis/../data/raw_data/p3awyfzqtp5_1732222058784.csv
NA,null,html-keyboard-response,10,2.0.0,45116,p3awyfzqtp5,eagle,"<div style=""font-size:60px;"">+</div>",null,NA,NA,NA,/Users/martincz/GitHub/COGS119/group_fa24_false_recall/analysis/../data/raw_data/p3awyfzqtp5_1732222058784.csv
NA,null,html-keyboard-response,11,2.0.0,46619,p3awyfzqtp5,eagle,<p>temper</p>,null,NA,NA,NA,/Users/martincz/GitHub/COGS119/group_fa24_false_recall/analysis/../data/raw_data/p3awyfzqtp5_1732222058784.csv
NA,null,html-keyboard-response,12,2.0.0,47622,p3awyfzqtp5,eagle,"<div style=""font-size:60px;"">+</div>",null,NA,NA,NA,/Users/martincz/GitHub/COGS119/group_fa24_false_recall/analysis/../data/raw_data/p3awyfzqtp5_1732222058784.csv
NA,null,html-keyboard-response,13,2.0.0,49125,p3awyfzqtp5,eagle,<p>mad</p>,null,NA,NA,NA,/Users/martincz/GitHub/COGS119/group_fa24_false_recall/analysis/../data/raw_data/p3awyfzqtp5_1732222058784.csv
NA,null,html-keyboard-response,14,2.0.0,50127,p3awyfzqtp5,eagle,"<div style=""font-size:60px;"">+</div>",null,NA,NA,NA,/Users/martincz/GitHub/COGS119/group_fa24_false_recall/analysis/../data/raw_data/p3awyfzqtp5_1732222058784.csv
NA,null,html-keyboard-response,15,2.0.0,51630,p3awyfzqtp5,eagle,<p>fury</p>,null,NA,NA,NA,/Users/martincz/GitHub/COGS119/group_fa24_false_recall/analysis/../data/raw_data/p3awyfzqtp5_1732222058784.csv
NA,null,html-keyboard-response,16,2.0.0,52633,p3awyfzqtp5,eagle,"<div style=""font-size:60px;"">+</div>",null,NA,NA,NA,/Users/martincz/GitHub/COGS119/group_fa24_false_recall/analysis/../data/raw_data/p3awyfzqtp5_1732222058784.csv
NA,null,html-keyboard-response,17,2.0.0,54136,p3awyfzqtp5,eagle,<p>mean</p>,null,NA,NA,NA,/Users/martincz/GitHub/COGS119/group_fa24_false_recall/analysis/../data/raw_data/p3awyfzqtp5_1732222058784.csv
NA,null,html-keyboard-response,18,2.0.0,55139,p3awyfzqtp5,eagle,"<div style=""font-size:60px;"">+</div>",null,NA,NA,NA,/Users/martincz/GitHub/COGS119/group_fa24_false_recall/analysis/../data/raw_data/p3awyfzqtp5_1732222058784.csv
NA,null,html-keyboard-response,19,2.0.0,56641,p3awyfzqtp5,eagle,<p>fear</p>,null,NA,NA,NA,/Users/martincz/GitHub/COGS119/group_fa24_false_recall/analysis/../data/raw_data/p3awyfzqtp5_1732222058784.csv
NA,null,html-keyboard-response,20,2.0.0,57644,p3awyfzqtp5,eagle,"<div style=""font-size:60px;"">+</div>",null,NA,NA,NA,/Users/martincz/GitHub/COGS119/group_fa24_false_recall/analysis/../data/raw_data/p3awyfzqtp5_1732222058784.csv
NA,null,html-keyboard-response,21,2.0.0,59146,p3awyfzqtp5,eagle,<p>happy</p>,null,NA,NA,NA,/Users/martincz/GitHub/COGS119/group_fa24_false_recall/analysis/../data/raw_data/p3awyfzqtp5_1732222058784.csv
NA,null,html-keyboard-response,22,2.0.0,60147,p3awyfzqtp5,eagle,"<div style=""font-size:60px;"">+</div>",null,NA,NA,NA,/Users/martincz/GitHub/COGS119/group_fa24_false_recall/analysis/../data/raw_data/p3awyfzqtp5_1732222058784.csv
NA,null,html-keyboard-response,23,2.0.0,61650,p3awyfzqtp5,eagle,<p>ire</p>,null,NA,NA,NA,/Users/martincz/GitHub/COGS119/group_fa24_false_recall/analysis/../data/raw_data/p3awyfzqtp5_1732222058784.csv
NA,null,html-keyboard-response,24,2.0.0,62653,p3awyfzqtp5,eagle,"<div style=""font-size:60px;"">+</div>",null,NA,NA,NA,/Users/martincz/GitHub/COGS119/group_fa24_false_recall/analysis/../data/raw_data/p3awyfzqtp5_1732222058784.csv
NA,null,html-keyboard-response,25,2.0.0,64155,p3awyfzqtp5,eagle,<p>fight</p>,null,NA,NA,NA,/Users/martincz/GitHub/COGS119/group_fa24_false_recall/analysis/../data/raw_data/p3awyfzqtp5_1732222058784.csv
NA,null,html-keyboard-response,26,2.0.0,65158,p3awyfzqtp5,eagle,"<div style=""font-size:60px;"">+</div>",null,NA,NA,NA,/Users/martincz/GitHub/COGS119/group_fa24_false_recall/analysis/../data/raw_data/p3awyfzqtp5_1732222058784.csv
NA,null,html-keyboard-response,27,2.0.0,66661,p3awyfzqtp5,eagle,<p>hate</p>,null,NA,NA,NA,/Users/martincz/GitHub/COGS119/group_fa24_false_recall/analysis/../data/raw_data/p3awyfzqtp5_1732222058784.csv
NA,null,html-keyboard-response,28,2.0.0,68663,p3awyfzqtp5,eagle,<h3>List 2 </h3>,null,NA,NA,NA,/Users/martincz/GitHub/COGS119/group_fa24_false_recall/analysis/../data/raw_data/p3awyfzqtp5_1732222058784.csv
NA,null,html-keyboard-response,29,2.0.0,69666,p3awyfzqtp5,eagle,"<div style=""font-size:60px;"">+</div>",null,NA,NA,NA,/Users/martincz/GitHub/COGS119/group_fa24_false_recall/analysis/../data/raw_data/p3awyfzqtp5_1732222058784.csv
NA,null,html-keyboard-response,30,2.0.0,71169,p3awyfzqtp5,eagle,<p>physician</p>,null,NA,NA,NA,/Users/martincz/GitHub/COGS119/group_fa24_false_recall/analysis/../data/raw_data/p3awyfzqtp5_1732222058784.csv
NA,null,html-keyboard-response,31,2.0.0,72172,p3awyfzqtp5,eagle,"<div style=""font-size:60px;"">+</div>",null,NA,NA,NA,/Users/martincz/GitHub/COGS119/group_fa24_false_recall/analysis/../data/raw_data/p3awyfzqtp5_1732222058784.csv
NA,null,html-keyboard-response,32,2.0.0,73674,p3awyfzqtp5,eagle,<p>office</p>,null,NA,NA,NA,/Users/martincz/GitHub/COGS119/group_fa24_false_recall/analysis/../data/raw_data/p3awyfzqtp5_1732222058784.csv
NA,null,html-keyboard-response,33,2.0.0,74677,p3awyfzqtp5,eagle,"<div style=""font-size:60px;"">+</div>",null,NA,NA,NA,/Users/martincz/GitHub/COGS119/group_fa24_false_recall/analysis/../data/raw_data/p3awyfzqtp5_1732222058784.csv
NA,null,html-keyboard-response,34,2.0.0,76180,p3awyfzqtp5,eagle,<p>ill</p>,null,NA,NA,NA,/Users/martincz/GitHub/COGS119/group_fa24_false_recall/analysis/../data/raw_data/p3awyfzqtp5_1732222058784.csv
NA,null,html-keyboard-response,35,2.0.0,77183,p3awyfzqtp5,eagle,"<div style=""font-size:60px;"">+</div>",null,NA,NA,NA,/Users/martincz/GitHub/COGS119/group_fa24_false_recall/analysis/../data/raw_data/p3awyfzqtp5_1732222058784.csv
NA,null,html-keyboard-response,36,2.0.0,78685,p3awyfzqtp5,eagle,<p>medicine</p>,null,NA,NA,NA,/Users/martincz/GitHub/COGS119/group_fa24_false_recall/analysis/../data/raw_data/p3awyfzqtp5_1732222058784.csv
NA,null,html-keyboard-response,37,2.0.0,79686,p3awyfzqtp5,eagle,"<div style=""font-size:60px;"">+</div>",null,NA,NA,NA,/Users/martincz/GitHub/COGS119/group_fa24_false_recall/analysis/../data/raw_data/p3awyfzqtp5_1732222058784.csv
NA,null,html-keyboard-response,38,2.0.0,81189,p3awyfzqtp5,eagle,<p>lawyer</p>,null,NA,NA,NA,/Users/martincz/GitHub/COGS119/group_fa24_false_recall/analysis/../data/raw_data/p3awyfzqtp5_1732222058784.csv
NA,null,html-keyboard-response,39,2.0.0,82192,p3awyfzqtp5,eagle,"<div style=""font-size:60px;"">+</div>",null,NA,NA,NA,/Users/martincz/GitHub/COGS119/group_fa24_false_recall/analysis/../data/raw_data/p3awyfzqtp5_1732222058784.csv
NA,null,html-keyboard-response,40,2.0.0,83695,p3awyfzqtp5,eagle,<p>health</p>,null,NA,NA,NA,/Users/martincz/GitHub/COGS119/group_fa24_false_recall/analysis/../data/raw_data/p3awyfzqtp5_1732222058784.csv
NA,null,html-keyboard-response,41,2.0.0,84698,p3awyfzqtp5,eagle,"<div style=""font-size:60px;"">+</div>",null,NA,NA,NA,/Users/martincz/GitHub/COGS119/group_fa24_false_recall/analysis/../data/raw_data/p3awyfzqtp5_1732222058784.csv
NA,null,html-keyboard-response,42,2.0.0,86201,p3awyfzqtp5,eagle,<p>patient</p>,null,NA,NA,NA,/Users/martincz/GitHub/COGS119/group_fa24_false_recall/analysis/../data/raw_data/p3awyfzqtp5_1732222058784.csv
NA,null,html-keyboard-response,43,2.0.0,87203,p3awyfzqtp5,eagle,"<div style=""font-size:60px;"">+</div>",null,NA,NA,NA,/Users/martincz/GitHub/COGS119/group_fa24_false_recall/analysis/../data/raw_data/p3awyfzqtp5_1732222058784.csv
NA,null,html-keyboard-response,44,2.0.0,88706,p3awyfzqtp5,eagle,<p>sick</p>,null,NA,NA,NA,/Users/martincz/GitHub/COGS119/group_fa24_false_recall/analysis/../data/raw_data/p3awyfzqtp5_1732222058784.csv
NA,null,html-keyboard-response,45,2.0.0,89709,p3awyfzqtp5,eagle,"<div style=""font-size:60px;"">+</div>",null,NA,NA,NA,/Users/martincz/GitHub/COGS119/group_fa24_false_recall/analysis/../data/raw_data/p3awyfzqtp5_1732222058784.csv
NA,null,html-keyboard-response,46,2.0.0,91212,p3awyfzqtp5,eagle,<p>nurse</p>,null,NA,NA,NA,/Users/martincz/GitHub/COGS119/group_fa24_false_recall/analysis/../data/raw_data/p3awyfzqtp5_1732222058784.csv
NA,null,html-keyboard-response,47,2.0.0,92215,p3awyfzqtp5,eagle,"<div style=""font-size:60px;"">+</div>",null,NA,NA,NA,/Users/martincz/GitHub/COGS119/group_fa24_false_recall/analysis/../data/raw_data/p3awyfzqtp5_1732222058784.csv
NA,null,html-keyboard-response,48,2.0.0,93717,p3awyfzqtp5,eagle,<p>hospital</p>,null,NA,NA,NA,/Users/martincz/GitHub/COGS119/group_fa24_false_recall/analysis/../data/raw_data/p3awyfzqtp5_1732222058784.csv
NA,null,html-keyboard-response,49,2.0.0,94719,p3awyfzqtp5,eagle,"<div style=""font-size:60px;"">+</div>",null,NA,NA,NA,/Users/martincz/GitHub/COGS119/group_fa24_false_recall/analysis/../data/raw_data/p3awyfzqtp5_1732222058784.csv
NA,null,html-keyboard-response,50,2.0.0,96220,p3awyfzqtp5,eagle,<p>dentist</p>,null,NA,NA,NA,/Users/martincz/GitHub/COGS119/group_fa24_false_recall/analysis/../data/raw_data/p3awyfzqtp5_1732222058784.csv
NA,null,html-keyboard-response,51,2.0.0,97222,p3awyfzqtp5,eagle,"<div style=""font-size:60px;"">+</div>",null,NA,NA,NA,/Users/martincz/GitHub/COGS119/group_fa24_false_recall/analysis/../data/raw_data/p3awyfzqtp5_1732222058784.csv
NA,null,html-keyboard-response,52,2.0.0,98725,p3awyfzqtp5,eagle,<p>stethoscope</p>,null,NA,NA,NA,/Users/martincz/GitHub/COGS119/group_fa24_false_recall/analysis/../data/raw_data/p3awyfzqtp5_1732222058784.csv
NA,null,html-keyboard-response,53,2.0.0,100727,p3awyfzqtp5,eagle,<h3>List 3 </h3>,null,NA,NA,NA,/Users/martincz/GitHub/COGS119/group_fa24_false_recall/analysis/../data/raw_data/p3awyfzqtp5_1732222058784.csv
NA,null,html-keyboard-response,54,2.0.0,101729,p3awyfzqtp5,eagle,"<div style=""font-size:60px;"">+</div>",null,NA,NA,NA,/Users/martincz/GitHub/COGS119/group_fa24_false_recall/analysis/../data/raw_data/p3awyfzqtp5_1732222058784.csv
NA,null,html-keyboard-response,55,2.0.0,103233,p3awyfzqtp5,eagle,<p>wet</p>,null,NA,NA,NA,/Users/martincz/GitHub/COGS119/group_fa24_false_recall/analysis/../data/raw_data/p3awyfzqtp5_1732222058784.csv
NA,null,html-keyboard-response,56,2.0.0,104236,p3awyfzqtp5,eagle,"<div style=""font-size:60px;"">+</div>",null,NA,NA,NA,/Users/martincz/GitHub/COGS119/group_fa24_false_recall/analysis/../data/raw_data/p3awyfzqtp5_1732222058784.csv
NA,null,html-keyboard-response,57,2.0.0,105739,p3awyfzqtp5,eagle,<p>snow</p>,null,NA,NA,NA,/Users/martincz/GitHub/COGS119/group_fa24_false_recall/analysis/../data/raw_data/p3awyfzqtp5_1732222058784.csv
NA,null,html-keyboard-response,58,2.0.0,106741,p3awyfzqtp5,eagle,"<div style=""font-size:60px;"">+</div>",null,NA,NA,NA,/Users/martincz/GitHub/COGS119/group_fa24_false_recall/analysis/../data/raw_data/p3awyfzqtp5_1732222058784.csv
NA,null,html-keyboard-response,59,2.0.0,108243,p3awyfzqtp5,eagle,<p>freeze</p>,null,NA,NA,NA,/Users/martincz/GitHub/COGS119/group_fa24_false_recall/analysis/../data/raw_data/p3awyfzqtp5_1732222058784.csv
NA,null,html-keyboard-response,60,2.0.0,109246,p3awyfzqtp5,eagle,"<div style=""font-size:60px;"">+</div>",null,NA,NA,NA,/Users/martincz/GitHub/COGS119/group_fa24_false_recall/analysis/../data/raw_data/p3awyfzqtp5_1732222058784.csv
NA,null,html-keyboard-response,61,2.0.0,110749,p3awyfzqtp5,eagle,<p>winter</p>,null,NA,NA,NA,/Users/martincz/GitHub/COGS119/group_fa24_false_recall/analysis/../data/raw_data/p3awyfzqtp5_1732222058784.csv
NA,null,html-keyboard-response,62,2.0.0,111752,p3awyfzqtp5,eagle,"<div style=""font-size:60px;"">+</div>",null,NA,NA,NA,/Users/martincz/GitHub/COGS119/group_fa24_false_recall/analysis/../data/raw_data/p3awyfzqtp5_1732222058784.csv
NA,null,html-keyboard-response,63,2.0.0,113255,p3awyfzqtp5,eagle,<p>ice</p>,null,NA,NA,NA,/Users/martincz/GitHub/COGS119/group_fa24_false_recall/analysis/../data/raw_data/p3awyfzqtp5_1732222058784.csv
NA,null,html-keyboard-response,64,2.0.0,114259,p3awyfzqtp5,eagle,"<div style=""font-size:60px;"">+</div>",null,NA,NA,NA,/Users/martincz/GitHub/COGS119/group_fa24_false_recall/analysis/../data/raw_data/p3awyfzqtp5_1732222058784.csv
NA,null,html-keyboard-response,65,2.0.0,115761,p3awyfzqtp5,eagle,<p>frigid</p>,null,NA,NA,NA,/Users/martincz/GitHub/COGS119/group_fa24_false_recall/analysis/../data/raw_data/p3awyfzqtp5_1732222058784.csv
NA,null,html-keyboard-response,66,2.0.0,116763,p3awyfzqtp5,eagle,"<div style=""font-size:60px;"">+</div>",null,NA,NA,NA,/Users/martincz/GitHub/COGS119/group_fa24_false_recall/analysis/../data/raw_data/p3awyfzqtp5_1732222058784.csv
NA,null,html-keyboard-response,67,2.0.0,118266,p3awyfzqtp5,eagle,<p>heat</p>,null,NA,NA,NA,/Users/martincz/GitHub/COGS119/group_fa24_false_recall/analysis/../data/raw_data/p3awyfzqtp5_1732222058784.csv
NA,null,html-keyboard-response,68,2.0.0,119269,p3awyfzqtp5,eagle,"<div style=""font-size:60px;"">+</div>",null,NA,NA,NA,/Users/martincz/GitHub/COGS119/group_fa24_false_recall/analysis/../data/raw_data/p3awyfzqtp5_1732222058784.csv
NA,null,html-keyboard-response,69,2.0.0,120772,p3awyfzqtp5,eagle,<p>hot</p>,null,NA,NA,NA,/Users/martincz/GitHub/COGS119/group_fa24_false_recall/analysis/../data/raw_data/p3awyfzqtp5_1732222058784.csv
NA,null,html-keyboard-response,70,2.0.0,121776,p3awyfzqtp5,eagle,"<div style=""font-size:60px;"">+</div>",null,NA,NA,NA,/Users/martincz/GitHub/COGS119/group_fa24_false_recall/analysis/../data/raw_data/p3awyfzqtp5_1732222058784.csv
NA,null,html-keyboard-response,71,2.0.0,123278,p3awyfzqtp5,eagle,<p>air</p>,null,NA,NA,NA,/Users/martincz/GitHub/COGS119/group_fa24_false_recall/analysis/../data/raw_data/p3awyfzqtp5_1732222058784.csv
NA,null,html-keyboard-response,72,2.0.0,124281,p3awyfzqtp5,eagle,"<div style=""font-size:60px;"">+</div>",null,NA,NA,NA,/Users/martincz/GitHub/COGS119/group_fa24_false_recall/analysis/../data/raw_data/p3awyfzqtp5_1732222058784.csv
NA,null,html-keyboard-response,73,2.0.0,125782,p3awyfzqtp5,eagle,<p>chilly</p>,null,NA,NA,NA,/Users/martincz/GitHub/COGS119/group_fa24_false_recall/analysis/../data/raw_data/p3awyfzqtp5_1732222058784.csv
NA,null,html-keyboard-response,74,2.0.0,126785,p3awyfzqtp5,eagle,"<div style=""font-size:60px;"">+</div>",null,NA,NA,NA,/Users/martincz/GitHub/COGS119/group_fa24_false_recall/analysis/../data/raw_data/p3awyfzqtp5_1732222058784.csv
NA,null,html-keyboard-response,75,2.0.0,128287,p3awyfzqtp5,eagle,<p>warm</p>,null,NA,NA,NA,/Users/martincz/GitHub/COGS119/group_fa24_false_recall/analysis/../data/raw_data/p3awyfzqtp5_1732222058784.csv
NA,null,html-keyboard-response,76,2.0.0,129289,p3awyfzqtp5,eagle,"<div style=""font-size:60px;"">+</div>",null,NA,NA,NA,/Users/martincz/GitHub/COGS119/group_fa24_false_recall/analysis/../data/raw_data/p3awyfzqtp5_1732222058784.csv
NA,null,html-keyboard-response,77,2.0.0,130792,p3awyfzqtp5,eagle,<p>weather</p>,null,NA,NA,NA,/Users/martincz/GitHub/COGS119/group_fa24_false_recall/analysis/../data/raw_data/p3awyfzqtp5_1732222058784.csv
NA,null,html-keyboard-response,78,2.0.0,132795,p3awyfzqtp5,eagle,<h3>List 4 </h3>,null,NA,NA,NA,/Users/martincz/GitHub/COGS119/group_fa24_false_recall/analysis/../data/raw_data/p3awyfzqtp5_1732222058784.csv
NA,null,html-keyboard-response,79,2.0.0,133797,p3awyfzqtp5,eagle,"<div style=""font-size:60px;"">+</div>",null,NA,NA,NA,/Users/martincz/GitHub/COGS119/group_fa24_false_recall/analysis/../data/raw_data/p3awyfzqtp5_1732222058784.csv
NA,null,html-keyboard-response,80,2.0.0,135300,p3awyfzqtp5,eagle,<p>cushion</p>,null,NA,NA,NA,/Users/martincz/GitHub/COGS119/group_fa24_false_recall/analysis/../data/raw_data/p3awyfzqtp5_1732222058784.csv
NA,null,html-keyboard-response,81,2.0.0,136303,p3awyfzqtp5,eagle,"<div style=""font-size:60px;"">+</div>",null,NA,NA,NA,/Users/martincz/GitHub/COGS119/group_fa24_false_recall/analysis/../data/raw_data/p3awyfzqtp5_1732222058784.csv
NA,null,html-keyboard-response,82,2.0.0,137807,p3awyfzqtp5,eagle,<p>swivel</p>,null,NA,NA,NA,/Users/martincz/GitHub/COGS119/group_fa24_false_recall/analysis/../data/raw_data/p3awyfzqtp5_1732222058784.csv
NA,null,html-keyboard-response,83,2.0.0,138810,p3awyfzqtp5,eagle,"<div style=""font-size:60px;"">+</div>",null,NA,NA,NA,/Users/martincz/GitHub/COGS119/group_fa24_false_recall/analysis/../data/raw_data/p3awyfzqtp5_1732222058784.csv
NA,null,html-keyboard-response,84,2.0.0,140312,p3awyfzqtp5,eagle,<p>sit</p>,null,NA,NA,NA,/Users/martincz/GitHub/COGS119/group_fa24_false_recall/analysis/../data/raw_data/p3awyfzqtp5_1732222058784.csv
NA,null,html-keyboard-response,85,2.0.0,141317,p3awyfzqtp5,eagle,"<div style=""font-size:60px;"">+</div>",null,NA,NA,NA,/Users/martincz/GitHub/COGS119/group_fa24_false_recall/analysis/../data/raw_data/p3awyfzqtp5_1732222058784.csv
NA,null,html-keyboard-response,86,2.0.0,142820,p3awyfzqtp5,eagle,<p>stool</p>,null,NA,NA,NA,/Users/martincz/GitHub/COGS119/group_fa24_false_recall/analysis/../data/raw_data/p3awyfzqtp5_1732222058784.csv
NA,null,html-keyboard-response,87,2.0.0,143822,p3awyfzqtp5,eagle,"<div style=""font-size:60px;"">+</div>",null,NA,NA,NA,/Users/martincz/GitHub/COGS119/group_fa24_false_recall/analysis/../data/raw_data/p3awyfzqtp5_1732222058784.csv
NA,null,html-keyboard-response,88,2.0.0,145325,p3awyfzqtp5,eagle,<p>legs</p>,null,NA,NA,NA,/Users/martincz/GitHub/COGS119/group_fa24_false_recall/analysis/../data/raw_data/p3awyfzqtp5_1732222058784.csv
NA,null,html-keyboard-response,89,2.0.0,146327,p3awyfzqtp5,eagle,"<div style=""font-size:60px;"">+</div>",null,NA,NA,NA,/Users/martincz/GitHub/COGS119/group_fa24_false_recall/analysis/../data/raw_data/p3awyfzqtp5_1732222058784.csv
NA,null,html-keyboard-response,90,2.0.0,147830,p3awyfzqtp5,eagle,<p>desk</p>,null,NA,NA,NA,/Users/martincz/GitHub/COGS119/group_fa24_false_recall/analysis/../data/raw_data/p3awyfzqtp5_1732222058784.csv
NA,null,html-keyboard-response,91,2.0.0,148831,p3awyfzqtp5,eagle,"<div style=""font-size:60px;"">+</div>",null,NA,NA,NA,/Users/martincz/GitHub/COGS119/group_fa24_false_recall/analysis/../data/raw_data/p3awyfzqtp5_1732222058784.csv
NA,null,html-keyboard-response,92,2.0.0,150334,p3awyfzqtp5,eagle,<p>recliner</p>,null,NA,NA,NA,/Users/martincz/GitHub/COGS119/group_fa24_false_recall/analysis/../data/raw_data/p3awyfzqtp5_1732222058784.csv
NA,null,html-keyboard-response,93,2.0.0,151336,p3awyfzqtp5,eagle,"<div style=""font-size:60px;"">+</div>",null,NA,NA,NA,/Users/martincz/GitHub/COGS119/group_fa24_false_recall/analysis/../data/raw_data/p3awyfzqtp5_1732222058784.csv
NA,null,html-keyboard-response,94,2.0.0,152839,p3awyfzqtp5,eagle,<p>table</p>,null,NA,NA,NA,/Users/martincz/GitHub/COGS119/group_fa24_false_recall/analysis/../data/raw_data/p3awyfzqtp5_1732222058784.csv
NA,null,html-keyboard-response,95,2.0.0,153841,p3awyfzqtp5,eagle,"<div style=""font-size:60px;"">+</div>",null,NA,NA,NA,/Users/martincz/GitHub/COGS119/group_fa24_false_recall/analysis/../data/raw_data/p3awyfzqtp5_1732222058784.csv
NA,null,html-keyboard-response,96,2.0.0,155344,p3awyfzqtp5,eagle,<p>wood</p>,null,NA,NA,NA,/Users/martincz/GitHub/COGS119/group_fa24_false_recall/analysis/../data/raw_data/p3awyfzqtp5_1732222058784.csv
NA,null,html-keyboard-response,97,2.0.0,156347,p3awyfzqtp5,eagle,"<div style=""font-size:60px;"">+</div>",null,NA,NA,NA,/Users/martincz/GitHub/COGS119/group_fa24_false_recall/analysis/../data/raw_data/p3awyfzqtp5_1732222058784.csv
NA,null,html-keyboard-response,98,2.0.0,157849,p3awyfzqtp5,eagle,<p>seat</p>,null,NA,NA,NA,/Users/martincz/GitHub/COGS119/group_fa24_false_recall/analysis/../data/raw_data/p3awyfzqtp5_1732222058784.csv
NA,null,html-keyboard-response,99,2.0.0,158851,p3awyfzqtp5,eagle,"<div style=""font-size:60px;"">+</div>",null,NA,NA,NA,/Users/martincz/GitHub/COGS119/group_fa24_false_recall/analysis/../data/raw_data/p3awyfzqtp5_1732222058784.csv
NA,null,html-keyboard-response,100,2.0.0,160354,p3awyfzqtp5,eagle,<p>couch</p>,null,NA,NA,NA,/Users/martincz/GitHub/COGS119/group_fa24_false_recall/analysis/../data/raw_data/p3awyfzqtp5_1732222058784.csv
NA,null,html-keyboard-response,101,2.0.0,161356,p3awyfzqtp5,eagle,"<div style=""font-size:60px;"">+</div>",null,NA,NA,NA,/Users/martincz/GitHub/COGS119/group_fa24_false_recall/analysis/../data/raw_data/p3awyfzqtp5_1732222058784.csv
NA,null,html-keyboard-response,102,2.0.0,162859,p3awyfzqtp5,eagle,<p>sofa</p>,null,NA,NA,NA,/Users/martincz/GitHub/COGS119/group_fa24_false_recall/analysis/../data/raw_data/p3awyfzqtp5_1732222058784.csv
NA,null,html-keyboard-response,103,2.0.0,164863,p3awyfzqtp5,eagle,<h3>List 5 </h3>,null,NA,NA,NA,/Users/martincz/GitHub/COGS119/group_fa24_false_recall/analysis/../data/raw_data/p3awyfzqtp5_1732222058784.csv
NA,null,html-keyboard-response,104,2.0.0,165865,p3awyfzqtp5,eagle,"<div style=""font-size:60px;"">+</div>",null,NA,NA,NA,/Users/martincz/GitHub/COGS119/group_fa24_false_recall/analysis/../data/raw_data/p3awyfzqtp5_1732222058784.csv
NA,null,html-keyboard-response,105,2.0.0,167368,p3awyfzqtp5,eagle,<p>eat</p>,null,NA,NA,NA,/Users/martincz/GitHub/COGS119/group_fa24_false_recall/analysis/../data/raw_data/p3awyfzqtp5_1732222058784.csv
NA,null,html-keyboard-response,106,2.0.0,168371,p3awyfzqtp5,eagle,"<div style=""font-size:60px;"">+</div>",null,NA,NA,NA,/Users/martincz/GitHub/COGS119/group_fa24_false_recall/analysis/../data/raw_data/p3awyfzqtp5_1732222058784.csv
NA,null,html-keyboard-response,107,2.0.0,169874,p3awyfzqtp5,eagle,<p>rye</p>,null,NA,NA,NA,/Users/martincz/GitHub/COGS119/group_fa24_false_recall/analysis/../data/raw_data/p3awyfzqtp5_1732222058784.csv
NA,null,html-keyboard-response,108,2.0.0,170877,p3awyfzqtp5,eagle,"<div style=""font-size:60px;"">+</div>",null,NA,NA,NA,/Users/martincz/GitHub/COGS119/group_fa24_false_recall/analysis/../data/raw_data/p3awyfzqtp5_1732222058784.csv
NA,null,html-keyboard-response,109,2.0.0,172380,p3awyfzqtp5,eagle,<p>sandwich</p>,null,NA,NA,NA,/Users/martincz/GitHub/COGS119/group_fa24_false_recall/analysis/../data/raw_data/p3awyfzqtp5_1732222058784.csv
NA,null,html-keyboard-response,110,2.0.0,173383,p3awyfzqtp5,eagle,"<div style=""font-size:60px;"">+</div>",null,NA,NA,NA,/Users/martincz/GitHub/COGS119/group_fa24_false_recall/analysis/../data/raw_data/p3awyfzqtp5_1732222058784.csv
NA,null,html-keyboard-response,111,2.0.0,174885,p3awyfzqtp5,eagle,<p>butter</p>,null,NA,NA,NA,/Users/martincz/GitHub/COGS119/group_fa24_false_recall/analysis/../data/raw_data/p3awyfzqtp5_1732222058784.csv
NA,null,html-keyboard-response,112,2.0.0,175888,p3awyfzqtp5,eagle,"<div style=""font-size:60px;"">+</div>",null,NA,NA,NA,/Users/martincz/GitHub/COGS119/group_fa24_false_recall/analysis/../data/raw_data/p3awyfzqtp5_1732222058784.csv
NA,null,html-keyboard-response,113,2.0.0,177391,p3awyfzqtp5,eagle,<p>flour</p>,null,NA,NA,NA,/Users/martincz/GitHub/COGS119/group_fa24_false_recall/analysis/../data/raw_data/p3awyfzqtp5_1732222058784.csv
NA,null,html-keyboard-response,114,2.0.0,178394,p3awyfzqtp5,eagle,"<div style=""font-size:60px;"">+</div>",null,NA,NA,NA,/Users/martincz/GitHub/COGS119/group_fa24_false_recall/analysis/../data/raw_data/p3awyfzqtp5_1732222058784.csv
NA,null,html-keyboard-response,115,2.0.0,179896,p3awyfzqtp5,eagle,<p>dough</p>,null,NA,NA,NA,/Users/martincz/GitHub/COGS119/group_fa24_false_recall/analysis/../data/raw_data/p3awyfzqtp5_1732222058784.csv
NA,null,html-keyboard-response,116,2.0.0,180898,p3awyfzqtp5,eagle,"<div style=""font-size:60px;"">+</div>",null,NA,NA,NA,/Users/martincz/GitHub/COGS119/group_fa24_false_recall/analysis/../data/raw_data/p3awyfzqtp5_1732222058784.csv
NA,null,html-keyboard-response,117,2.0.0,182400,p3awyfzqtp5,eagle,<p>jelly</p>,null,NA,NA,NA,/Users/martincz/GitHub/COGS119/group_fa24_false_recall/analysis/../data/raw_data/p3awyfzqtp5_1732222058784.csv
NA,null,html-keyboard-response,118,2.0.0,183403,p3awyfzqtp5,eagle,"<div style=""font-size:60px;"">+</div>",null,NA,NA,NA,/Users/martincz/GitHub/COGS119/group_fa24_false_recall/analysis/../data/raw_data/p3awyfzqtp5_1732222058784.csv
NA,null,html-keyboard-response,119,2.0.0,184906,p3awyfzqtp5,eagle,<p>food</p>,null,NA,NA,NA,/Users/martincz/GitHub/COGS119/group_fa24_false_recall/analysis/../data/raw_data/p3awyfzqtp5_1732222058784.csv
NA,null,html-keyboard-response,120,2.0.0,185909,p3awyfzqtp5,eagle,"<div style=""font-size:60px;"">+</div>",null,NA,NA,NA,/Users/martincz/GitHub/COGS119/group_fa24_false_recall/analysis/../data/raw_data/p3awyfzqtp5_1732222058784.csv
NA,null,html-keyboard-response,121,2.0.0,187411,p3awyfzqtp5,eagle,<p>crust</p>,null,NA,NA,NA,/Users/martincz/GitHub/COGS119/group_fa24_false_recall/analysis/../data/raw_data/p3awyfzqtp5_1732222058784.csv
NA,null,html-keyboard-response,122,2.0.0,188414,p3awyfzqtp5,eagle,"<div style=""font-size:60px;"">+</div>",null,NA,NA,NA,/Users/martincz/GitHub/COGS119/group_fa24_false_recall/analysis/../data/raw_data/p3awyfzqtp5_1732222058784.csv
NA,null,html-keyboard-response,123,2.0.0,189916,p3awyfzqtp5,eagle,<p>slice</p>,null,NA,NA,NA,/Users/martincz/GitHub/COGS119/group_fa24_false_recall/analysis/../data/raw_data/p3awyfzqtp5_1732222058784.csv
NA,null,html-keyboard-response,124,2.0.0,190918,p3awyfzqtp5,eagle,"<div style=""font-size:60px;"">+</div>",null,NA,NA,NA,/Users/martincz/GitHub/COGS119/group_fa24_false_recall/analysis/../data/raw_data/p3awyfzqtp5_1732222058784.csv
NA,null,html-keyboard-response,125,2.0.0,192421,p3awyfzqtp5,eagle,<p>jam</p>,null,NA,NA,NA,/Users/martincz/GitHub/COGS119/group_fa24_false_recall/analysis/../data/raw_data/p3awyfzqtp5_1732222058784.csv
NA,null,html-keyboard-response,126,2.0.0,193423,p3awyfzqtp5,eagle,"<div style=""font-size:60px;"">+</div>",null,NA,NA,NA,/Users/martincz/GitHub/COGS119/group_fa24_false_recall/analysis/../data/raw_data/p3awyfzqtp5_1732222058784.csv
NA,null,html-keyboard-response,127,2.0.0,194926,p3awyfzqtp5,eagle,<p>milk</p>,null,NA,NA,NA,/Users/martincz/GitHub/COGS119/group_fa24_false_recall/analysis/../data/raw_data/p3awyfzqtp5_1732222058784.csv
NA,null,html-keyboard-response,128,2.0.0,196929,p3awyfzqtp5,eagle,<h3>List 6 </h3>,null,NA,NA,NA,/Users/martincz/GitHub/COGS119/group_fa24_false_recall/analysis/../data/raw_data/p3awyfzqtp5_1732222058784.csv
NA,null,html-keyboard-response,129,2.0.0,197932,p3awyfzqtp5,eagle,"<div style=""font-size:60px;"">+</div>",null,NA,NA,NA,/Users/martincz/GitHub/COGS119/group_fa24_false_recall/analysis/../data/raw_data/p3awyfzqtp5_1732222058784.csv
NA,null,html-keyboard-response,130,2.0.0,199435,p3awyfzqtp5,eagle,<p>funeral</p>,null,NA,NA,NA,/Users/martincz/GitHub/COGS119/group_fa24_false_recall/analysis/../data/raw_data/p3awyfzqtp5_1732222058784.csv
NA,null,html-keyboard-response,131,2.0.0,200436,p3awyfzqtp5,eagle,"<div style=""font-size:60px;"">+</div>",null,NA,NA,NA,/Users/martincz/GitHub/COGS119/group_fa24_false_recall/analysis/../data/raw_data/p3awyfzqtp5_1732222058784.csv
NA,null,html-keyboard-response,132,2.0.0,201941,p3awyfzqtp5,eagle,<p>ink</p>,null,NA,NA,NA,/Users/martincz/GitHub/COGS119/group_fa24_false_recall/analysis/../data/raw_data/p3awyfzqtp5_1732222058784.csv
NA,null,html-keyboard-response,133,2.0.0,202943,p3awyfzqtp5,eagle,"<div style=""font-size:60px;"">+</div>",null,NA,NA,NA,/Users/martincz/GitHub/COGS119/group_fa24_false_recall/analysis/../data/raw_data/p3awyfzqtp5_1732222058784.csv
NA,null,html-keyboard-response,134,2.0.0,204446,p3awyfzqtp5,eagle,<p>night</p>,null,NA,NA,NA,/Users/martincz/GitHub/COGS119/group_fa24_false_recall/analysis/../data/raw_data/p3awyfzqtp5_1732222058784.csv
NA,null,html-keyboard-response,135,2.0.0,205448,p3awyfzqtp5,eagle,"<div style=""font-size:60px;"">+</div>",null,NA,NA,NA,/Users/martincz/GitHub/COGS119/group_fa24_false_recall/analysis/../data/raw_data/p3awyfzqtp5_1732222058784.csv
NA,null,html-keyboard-response,136,2.0.0,206950,p3awyfzqtp5,eagle,<p>white</p>,null,NA,NA,NA,/Users/martincz/GitHub/COGS119/group_fa24_false_recall/analysis/../data/raw_data/p3awyfzqtp5_1732222058784.csv
NA,null,html-keyboard-response,137,2.0.0,207952,p3awyfzqtp5,eagle,"<div style=""font-size:60px;"">+</div>",null,NA,NA,NA,/Users/martincz/GitHub/COGS119/group_fa24_false_recall/analysis/../data/raw_data/p3awyfzqtp5_1732222058784.csv
NA,null,html-keyboard-response,138,2.0.0,209455,p3awyfzqtp5,eagle,<p>death</p>,null,NA,NA,NA,/Users/martincz/GitHub/COGS119/group_fa24_false_recall/analysis/../data/raw_data/p3awyfzqtp5_1732222058784.csv
NA,null,html-keyboard-response,139,2.0.0,210458,p3awyfzqtp5,eagle,"<div style=""font-size:60px;"">+</div>",null,NA,NA,NA,/Users/martincz/GitHub/COGS119/group_fa24_false_recall/analysis/../data/raw_data/p3awyfzqtp5_1732222058784.csv
NA,null,html-keyboard-response,140,2.0.0,211961,p3awyfzqtp5,eagle,<p>cat</p>,null,NA,NA,NA,/Users/martincz/GitHub/COGS119/group_fa24_false_recall/analysis/../data/raw_data/p3awyfzqtp5_1732222058784.csv
NA,null,html-keyboard-response,141,2.0.0,212963,p3awyfzqtp5,eagle,"<div style=""font-size:60px;"">+</div>",null,NA,NA,NA,/Users/martincz/GitHub/COGS119/group_fa24_false_recall/analysis/../data/raw_data/p3awyfzqtp5_1732222058784.csv
NA,null,html-keyboard-response,142,2.0.0,214467,p3awyfzqtp5,eagle,<p>dark</p>,null,NA,NA,NA,/Users/martincz/GitHub/COGS119/group_fa24_false_recall/analysis/../data/raw_data/p3awyfzqtp5_1732222058784.csv
NA,null,html-keyboard-response,143,2.0.0,215470,p3awyfzqtp5,eagle,"<div style=""font-size:60px;"">+</div>",null,NA,NA,NA,/Users/martincz/GitHub/COGS119/group_fa24_false_recall/analysis/../data/raw_data/p3awyfzqtp5_1732222058784.csv
NA,null,html-keyboard-response,144,2.0.0,216974,p3awyfzqtp5,eagle,<p>bottom</p>,null,NA,NA,NA,/Users/martincz/GitHub/COGS119/group_fa24_false_recall/analysis/../data/raw_data/p3awyfzqtp5_1732222058784.csv
NA,null,html-keyboard-response,145,2.0.0,217977,p3awyfzqtp5,eagle,"<div style=""font-size:60px;"">+</div>",null,NA,NA,NA,/Users/martincz/GitHub/COGS119/group_fa24_false_recall/analysis/../data/raw_data/p3awyfzqtp5_1732222058784.csv
NA,null,html-keyboard-response,146,2.0.0,219479,p3awyfzqtp5,eagle,<p>charred</p>,null,NA,NA,NA,/Users/martincz/GitHub/COGS119/group_fa24_false_recall/analysis/../data/raw_data/p3awyfzqtp5_1732222058784.csv
NA,null,html-keyboard-response,147,2.0.0,220482,p3awyfzqtp5,eagle,"<div style=""font-size:60px;"">+</div>",null,NA,NA,NA,/Users/martincz/GitHub/COGS119/group_fa24_false_recall/analysis/../data/raw_data/p3awyfzqtp5_1732222058784.csv
NA,null,html-keyboard-response,148,2.0.0,221984,p3awyfzqtp5,eagle,<p>grief</p>,null,NA,NA,NA,/Users/martincz/GitHub/COGS119/group_fa24_false_recall/analysis/../data/raw_data/p3awyfzqtp5_1732222058784.csv
NA,null,html-keyboard-response,149,2.0.0,222987,p3awyfzqtp5,eagle,"<div style=""font-size:60px;"">+</div>",null,NA,NA,NA,/Users/martincz/GitHub/COGS119/group_fa24_false_recall/analysis/../data/raw_data/p3awyfzqtp5_1732222058784.csv
NA,null,html-keyboard-response,150,2.0.0,224490,p3awyfzqtp5,eagle,<p>color</p>,null,NA,NA,NA,/Users/martincz/GitHub/COGS119/group_fa24_false_recall/analysis/../data/raw_data/p3awyfzqtp5_1732222058784.csv
NA,null,html-keyboard-response,151,2.0.0,225493,p3awyfzqtp5,eagle,"<div style=""font-size:60px;"">+</div>",null,NA,NA,NA,/Users/martincz/GitHub/COGS119/group_fa24_false_recall/analysis/../data/raw_data/p3awyfzqtp5_1732222058784.csv
NA,null,html-keyboard-response,152,2.0.0,226995,p3awyfzqtp5,eagle,<p>blue</p>,null,NA,NA,NA,/Users/martincz/GitHub/COGS119/group_fa24_false_recall/analysis/../data/raw_data/p3awyfzqtp5_1732222058784.csv
NA,44556,html-keyboard-response,153,2.0.0,271553,p3awyfzqtp5,eagle,"Now you will rate your confidence that each word occurred on the list. <p>Please indicate whether you think the word was definitely new, probably new, probably old, or definitely old.</p> <p>Press any key to continue.</P>",ArrowRight,NA,NA,NA,/Users/martincz/GitHub/COGS119/group_fa24_false_recall/analysis/../data/raw_data/p3awyfzqtp5_1732222058784.csv
NA,7214,survey-likert,154,null,278777,p3awyfzqtp5,eagle,NA,"{""Q0"":3}",anger,recognition,[0],/Users/martincz/GitHub/COGS119/group_fa24_false_recall/analysis/../data/raw_data/p3awyfzqtp5_1732222058784.csv
NA,2890,survey-likert,155,null,281673,p3awyfzqtp5,eagle,NA,"{""Q0"":0}",attention,recognition,[0],/Users/martincz/GitHub/COGS119/group_fa24_false_recall/analysis/../data/raw_data/p3awyfzqtp5_1732222058784.csv
NA,3598,survey-likert,156,null,285274,p3awyfzqtp5,eagle,NA,"{""Q0"":2}",charred,recognition,[0],/Users/martincz/GitHub/COGS119/group_fa24_false_recall/analysis/../data/raw_data/p3awyfzqtp5_1732222058784.csv
NA,2645,survey-likert,157,null,287922,p3awyfzqtp5,eagle,NA,"{""Q0"":3}",recliner,recognition,[0],/Users/martincz/GitHub/COGS119/group_fa24_false_recall/analysis/../data/raw_data/p3awyfzqtp5_1732222058784.csv
NA,2849,survey-likert,158,null,290772,p3awyfzqtp5,eagle,NA,"{""Q0"":1}",balance,recognition,[0],/Users/martincz/GitHub/COGS119/group_fa24_false_recall/analysis/../data/raw_data/p3awyfzqtp5_1732222058784.csv
NA,3416,survey-likert,159,null,294190,p3awyfzqtp5,eagle,NA,"{""Q0"":1}",oven,recognition,[0],/Users/martincz/GitHub/COGS119/group_fa24_false_recall/analysis/../data/raw_data/p3awyfzqtp5_1732222058784.csv
NA,3697,survey-likert,160,null,297889,p3awyfzqtp5,eagle,NA,"{""Q0"":1}",shade,recognition,[0],/Users/martincz/GitHub/COGS119/group_fa24_false_recall/analysis/../data/raw_data/p3awyfzqtp5_1732222058784.csv
NA,1863,survey-likert,161,null,299756,p3awyfzqtp5,eagle,NA,"{""Q0"":1}",black,recognition,[0],/Users/martincz/GitHub/COGS119/group_fa24_false_recall/analysis/../data/raw_data/p3awyfzqtp5_1732222058784.csv
NA,2065,survey-likert,162,null,301822,p3awyfzqtp5,eagle,NA,"{""Q0"":0}",balloon,recognition,[0],/Users/martincz/GitHub/COGS119/group_fa24_false_recall/analysis/../data/raw_data/p3awyfzqtp5_1732222058784.csv
NA,2282,survey-likert,163,null,304105,p3awyfzqtp5,eagle,NA,"{""Q0"":0}",void,recognition,[0],/Users/martincz/GitHub/COGS119/group_fa24_false_recall/analysis/../data/raw_data/p3awyfzqtp5_1732222058784.csv
NA,1814,survey-likert,164,null,305921,p3awyfzqtp5,eagle,NA,"{""Q0"":1}",dark,recognition,[0],/Users/martincz/GitHub/COGS119/group_fa24_false_recall/analysis/../data/raw_data/p3awyfzqtp5_1732222058784.csv
NA,1850,survey-likert,165,null,307773,p3awyfzqtp5,eagle,NA,"{""Q0"":1}",jelly,recognition,[0],/Users/martincz/GitHub/COGS119/group_fa24_false_recall/analysis/../data/raw_data/p3awyfzqtp5_1732222058784.csv
NA,2713,survey-likert,166,null,310487,p3awyfzqtp5,eagle,NA,"{""Q0"":0}",elephant,recognition,[0],/Users/martincz/GitHub/COGS119/group_fa24_false_recall/analysis/../data/raw_data/p3awyfzqtp5_1732222058784.csv
NA,5749,survey-likert,167,null,316239,p3awyfzqtp5,eagle,NA,"{""Q0"":1}",doctor,recognition,[0],/Users/martincz/GitHub/COGS119/group_fa24_false_recall/analysis/../data/raw_data/p3awyfzqtp5_1732222058784.csv
NA,2680,survey-likert,168,null,318920,p3awyfzqtp5,eagle,NA,"{""Q0"":1}",frame,recognition,[0],/Users/martincz/GitHub/COGS119/group_fa24_false_recall/analysis/../data/raw_data/p3awyfzqtp5_1732222058784.csv
NA,2816,survey-likert,169,null,321738,p3awyfzqtp5,eagle,NA,"{""Q0"":2}",ice,recognition,[0],/Users/martincz/GitHub/COGS119/group_fa24_false_recall/analysis/../data/raw_data/p3awyfzqtp5_1732222058784.csv
NA,4216,survey-likert,170,null,325955,p3awyfzqtp5,eagle,NA,"{""Q0"":1}",procedure,recognition,[0],/Users/martincz/GitHub/COGS119/group_fa24_false_recall/analysis/../data/raw_data/p3awyfzqtp5_1732222058784.csv
NA,2898,survey-likert,171,null,328855,p3awyfzqtp5,eagle,NA,"{""Q0"":2}",clock,recognition,[0],/Users/martincz/GitHub/COGS119/group_fa24_false_recall/analysis/../data/raw_data/p3awyfzqtp5_1732222058784.csv
NA,2631,survey-likert,172,null,331488,p3awyfzqtp5,eagle,NA,"{""Q0"":2}",bread,recognition,[0],/Users/martincz/GitHub/COGS119/group_fa24_false_recall/analysis/../data/raw_data/p3awyfzqtp5_1732222058784.csv
NA,2196,survey-likert,173,null,333686,p3awyfzqtp5,eagle,NA,"{""Q0"":3}",ill,recognition,[0],/Users/martincz/GitHub/COGS119/group_fa24_false_recall/analysis/../data/raw_data/p3awyfzqtp5_1732222058784.csv
NA,1835,survey-likert,174,null,335522,p3awyfzqtp5,eagle,NA,"{""Q0"":1}",basket,recognition,[0],/Users/martincz/GitHub/COGS119/group_fa24_false_recall/analysis/../data/raw_data/p3awyfzqtp5_1732222058784.csv
NA,5665,survey-likert,175,null,341189,p3awyfzqtp5,eagle,NA,"{""Q0"":1}",guitar,recognition,[0],/Users/martincz/GitHub/COGS119/group_fa24_false_recall/analysis/../data/raw_data/p3awyfzqtp5_1732222058784.csv
NA,2981,survey-likert,176,null,344172,p3awyfzqtp5,eagle,NA,"{""Q0"":3}",rye,recognition,[0],/Users/martincz/GitHub/COGS119/group_fa24_false_recall/analysis/../data/raw_data/p3awyfzqtp5_1732222058784.csv
NA,2999,survey-likert,177,null,347172,p3awyfzqtp5,eagle,NA,"{""Q0"":1}",laptop,recognition,[0],/Users/martincz/GitHub/COGS119/group_fa24_false_recall/analysis/../data/raw_data/p3awyfzqtp5_1732222058784.csv
NA,3531,survey-likert,178,null,350706,p3awyfzqtp5,eagle,NA,"{""Q0"":2}",seat,recognition,[0],/Users/martincz/GitHub/COGS119/group_fa24_false_recall/analysis/../data/raw_data/p3awyfzqtp5_1732222058784.csv
NA,1964,survey-likert,179,null,352672,p3awyfzqtp5,eagle,NA,"{""Q0"":3}",hatred,recognition,[0],/Users/martincz/GitHub/COGS119/group_fa24_false_recall/analysis/../data/raw_data/p3awyfzqtp5_1732222058784.csv
NA,5014,survey-likert,180,null,357688,p3awyfzqtp5,eagle,NA,"{""Q0"":2}",window,recognition,[0],/Users/martincz/GitHub/COGS119/group_fa24_false_recall/analysis/../data/raw_data/p3awyfzqtp5_1732222058784.csv
NA,5532,survey-likert,181,null,363222,p3awyfzqtp5,eagle,NA,"{""Q0"":1}",drift,recognition,[0],/Users/martincz/GitHub/COGS119/group_fa24_false_recall/analysis/../data/raw_data/p3awyfzqtp5_1732222058784.csv
NA,1830,survey-likert,182,null,365055,p3awyfzqtp5,eagle,NA,"{""Q0"":2}",temper,recognition,[0],/Users/martincz/GitHub/COGS119/group_fa24_false_recall/analysis/../data/raw_data/p3awyfzqtp5_1732222058784.csv
NA,2098,survey-likert,183,null,367155,p3awyfzqtp5,eagle,NA,"{""Q0"":2}",cold,recognition,[0],/Users/martincz/GitHub/COGS119/group_fa24_false_recall/analysis/../data/raw_data/p3awyfzqtp5_1732222058784.csv
NA,1897,survey-likert,184,null,369055,p3awyfzqtp5,eagle,NA,"{""Q0"":0}",lighthouse,recognition,[0],/Users/martincz/GitHub/COGS119/group_fa24_false_recall/analysis/../data/raw_data/p3awyfzqtp5_1732222058784.csv
NA,2730,survey-likert,185,null,371787,p3awyfzqtp5,eagle,NA,"{""Q0"":2}",curtain,recognition,[0],/Users/martincz/GitHub/COGS119/group_fa24_false_recall/analysis/../data/raw_data/p3awyfzqtp5_1732222058784.csv
NA,2165,survey-likert,186,null,373954,p3awyfzqtp5,eagle,NA,"{""Q0"":1}",chilly,recognition,[0],/Users/martincz/GitHub/COGS119/group_fa24_false_recall/analysis/../data/raw_data/p3awyfzqtp5_1732222058784.csv
NA,1714,survey-likert,187,null,375670,p3awyfzqtp5,eagle,NA,"{""Q0"":1}",conflict,recognition,[0],/Users/martincz/GitHub/COGS119/group_fa24_false_recall/analysis/../data/raw_data/p3awyfzqtp5_1732222058784.csv
NA,3166,survey-likert,188,null,378838,p3awyfzqtp5,eagle,NA,"{""Q0"":2}",mountain,recognition,[0],/Users/martincz/GitHub/COGS119/group_fa24_false_recall/analysis/../data/raw_data/p3awyfzqtp5_1732222058784.csv
NA,1615,survey-likert,189,null,380454,p3awyfzqtp5,eagle,NA,"{""Q0"":1}",book,recognition,[0],/Users/martincz/GitHub/COGS119/group_fa24_false_recall/analysis/../data/raw_data/p3awyfzqtp5_1732222058784.csv
NA,1899,survey-likert,190,null,382355,p3awyfzqtp5,eagle,NA,"{""Q0"":1}",river,recognition,[0],/Users/martincz/GitHub/COGS119/group_fa24_false_recall/analysis/../data/raw_data/p3awyfzqtp5_1732222058784.csv
NA,1713,survey-likert,191,null,384070,p3awyfzqtp5,eagle,NA,"{""Q0"":1}",noise,recognition,[0],/Users/martincz/GitHub/COGS119/group_fa24_false_recall/analysis/../data/raw_data/p3awyfzqtp5_1732222058784.csv
NA,2549,survey-likert,192,null,386620,p3awyfzqtp5,eagle,NA,"{""Q0"":3}",chair,recognition,[0],/Users/martincz/GitHub/COGS119/group_fa24_false_recall/analysis/../data/raw_data/p3awyfzqtp5_1732222058784.csv
NA,1782,survey-likert,193,null,388404,p3awyfzqtp5,eagle,NA,"{""Q0"":1}",camera,recognition,[0],/Users/martincz/GitHub/COGS119/group_fa24_false_recall/analysis/../data/raw_data/p3awyfzqtp5_1732222058784.csv
NA,6380,survey-likert,194,null,394785,p3awyfzqtp5,eagle,NA,"{""Q0"":2}",sick,recognition,[0],/Users/martincz/GitHub/COGS119/group_fa24_false_recall/analysis/../data/raw_data/p3awyfzqtp5_1732222058784.csv
NA,2134,survey-likert,195,null,396920,p3awyfzqtp5,eagle,NA,"{""Q0"":1}",planet,recognition,[0],/Users/martincz/GitHub/COGS119/group_fa24_false_recall/analysis/../data/raw_data/p3awyfzqtp5_1732222058784.csv
NA,51281,survey-text,196,2.0.0,448229,p3awyfzqtp5,eagle,NA,"{""age"":""21"",""gender"":""female"",""Q2"":""Memory test to see if seeing a word/being asked about it will make it more likely for false recall."",""Q3"":""No""}",NA,NA,NA,/Users/martincz/GitHub/COGS119/group_fa24_false_recall/analysis/../data/raw_data/p3awyfzqtp5_1732222058784.csv
TRUE,1169,fullscreen,0,null,2187,p61ookep616,gorilla,NA,NA,NA,NA,NA,/Users/martincz/GitHub/COGS119/group_fa24_false_recall/analysis/../data/raw_data/p61ookep616_1732223416953.csv
NA,10078,html-keyboard-response,1,2.0.0,12268,p61ookep616,gorilla,"Welcome to the Fasle Recall Experiment.<p>You will see and listen to 6 lists of 12-words one at a time. Try to remember as many as you can.</p><p>After the list, you’ll be asked to complete a recognition test.</p><p>Press any key to begin.</p>",NA,NA,NA,NA,/Users/martincz/GitHub/COGS119/group_fa24_false_recall/analysis/../data/raw_data/p61ookep616_1732223416953.csv
NA,5838,survey-text,2,2.0.0,18116,p61ookep616,gorilla,NA,"{""participant_id"":""gorilla""}",NA,NA,NA,/Users/martincz/GitHub/COGS119/group_fa24_false_recall/analysis/../data/raw_data/p61ookep616_1732223416953.csv
NA,null,html-keyboard-response,3,2.0.0,20125,p61ookep616,gorilla,<h3>List 1 </h3>,null,NA,NA,NA,/Users/martincz/GitHub/COGS119/group_fa24_false_recall/analysis/../data/raw_data/p61ookep616_1732223416953.csv
NA,null,html-keyboard-response,4,2.0.0,21140,p61ookep616,gorilla,"<div style=""font-size:60px;"">+</div>",null,NA,NA,NA,/Users/martincz/GitHub/COGS119/group_fa24_false_recall/analysis/../data/raw_data/p61ookep616_1732223416953.csv
NA,null,html-keyboard-response,5,2.0.0,22648,p61ookep616,gorilla,<p>white</p>,null,NA,NA,NA,/Users/martincz/GitHub/COGS119/group_fa24_false_recall/analysis/../data/raw_data/p61ookep616_1732223416953.csv
NA,null,html-keyboard-response,6,2.0.0,23664,p61ookep616,gorilla,"<div style=""font-size:60px;"">+</div>",null,NA,NA,NA,/Users/martincz/GitHub/COGS119/group_fa24_false_recall/analysis/../data/raw_data/p61ookep616_1732223416953.csv
NA,null,html-keyboard-response,7,2.0.0,25178,p61ookep616,gorilla,<p>charred</p>,null,NA,NA,NA,/Users/martincz/GitHub/COGS119/group_fa24_false_recall/analysis/../data/raw_data/p61ookep616_1732223416953.csv
NA,null,html-keyboard-response,8,2.0.0,26195,p61ookep616,gorilla,"<div style=""font-size:60px;"">+</div>",null,NA,NA,NA,/Users/martincz/GitHub/COGS119/group_fa24_false_recall/analysis/../data/raw_data/p61ookep616_1732223416953.csv
NA,null,html-keyboard-response,9,2.0.0,27697,p61ookep616,gorilla,<p>bottom</p>,null,NA,NA,NA,/Users/martincz/GitHub/COGS119/group_fa24_false_recall/analysis/../data/raw_data/p61ookep616_1732223416953.csv
NA,null,html-keyboard-response,10,2.0.0,28701,p61ookep616,gorilla,"<div style=""font-size:60px;"">+</div>",null,NA,NA,NA,/Users/martincz/GitHub/COGS119/group_fa24_false_recall/analysis/../data/raw_data/p61ookep616_1732223416953.csv
NA,null,html-keyboard-response,11,2.0.0,30209,p61ookep616,gorilla,<p>death</p>,null,NA,NA,NA,/Users/martincz/GitHub/COGS119/group_fa24_false_recall/analysis/../data/raw_data/p61ookep616_1732223416953.csv
NA,null,html-keyboard-response,12,2.0.0,31218,p61ookep616,gorilla,"<div style=""font-size:60px;"">+</div>",null,NA,NA,NA,/Users/martincz/GitHub/COGS119/group_fa24_false_recall/analysis/../data/raw_data/p61ookep616_1732223416953.csv
NA,null,html-keyboard-response,13,2.0.0,32721,p61ookep616,gorilla,<p>cat</p>,null,NA,NA,NA,/Users/martincz/GitHub/COGS119/group_fa24_false_recall/analysis/../data/raw_data/p61ookep616_1732223416953.csv
NA,null,html-keyboard-response,14,2.0.0,33723,p61ookep616,gorilla,"<div style=""font-size:60px;"">+</div>",null,NA,NA,NA,/Users/martincz/GitHub/COGS119/group_fa24_false_recall/analysis/../data/raw_data/p61ookep616_1732223416953.csv
NA,null,html-keyboard-response,15,2.0.0,35233,p61ookep616,gorilla,<p>grief</p>,null,NA,NA,NA,/Users/martincz/GitHub/COGS119/group_fa24_false_recall/analysis/../data/raw_data/p61ookep616_1732223416953.csv
NA,null,html-keyboard-response,16,2.0.0,36242,p61ookep616,gorilla,"<div style=""font-size:60px;"">+</div>",null,NA,NA,NA,/Users/martincz/GitHub/COGS119/group_fa24_false_recall/analysis/../data/raw_data/p61ookep616_1732223416953.csv
NA,null,html-keyboard-response,17,2.0.0,37750,p61ookep616,gorilla,<p>color</p>,null,NA,NA,NA,/Users/martincz/GitHub/COGS119/group_fa24_false_recall/analysis/../data/raw_data/p61ookep616_1732223416953.csv
NA,null,html-keyboard-response,18,2.0.0,38765,p61ookep616,gorilla,"<div style=""font-size:60px;"">+</div>",null,NA,NA,NA,/Users/martincz/GitHub/COGS119/group_fa24_false_recall/analysis/../data/raw_data/p61ookep616_1732223416953.csv
NA,null,html-keyboard-response,19,2.0.0,40278,p61ookep616,gorilla,<p>funeral</p>,null,NA,NA,NA,/Users/martincz/GitHub/COGS119/group_fa24_false_recall/analysis/../data/raw_data/p61ookep616_1732223416953.csv
NA,null,html-keyboard-response,20,2.0.0,41293,p61ookep616,gorilla,"<div style=""font-size:60px;"">+</div>",null,NA,NA,NA,/Users/martincz/GitHub/COGS119/group_fa24_false_recall/analysis/../data/raw_data/p61ookep616_1732223416953.csv
NA,null,html-keyboard-response,21,2.0.0,42798,p61ookep616,gorilla,<p>ink</p>,null,NA,NA,NA,/Users/martincz/GitHub/COGS119/group_fa24_false_recall/analysis/../data/raw_data/p61ookep616_1732223416953.csv
NA,null,html-keyboard-response,22,2.0.0,43814,p61ookep616,gorilla,"<div style=""font-size:60px;"">+</div>",null,NA,NA,NA,/Users/martincz/GitHub/COGS119/group_fa24_false_recall/analysis/../data/raw_data/p61ookep616_1732223416953.csv
NA,null,html-keyboard-response,23,2.0.0,45331,p61ookep616,gorilla,<p>blue</p>,null,NA,NA,NA,/Users/martincz/GitHub/COGS119/group_fa24_false_recall/analysis/../data/raw_data/p61ookep616_1732223416953.csv
NA,null,html-keyboard-response,24,2.0.0,46346,p61ookep616,gorilla,"<div style=""font-size:60px;"">+</div>",null,NA,NA,NA,/Users/martincz/GitHub/COGS119/group_fa24_false_recall/analysis/../data/raw_data/p61ookep616_1732223416953.csv
NA,null,html-keyboard-response,25,2.0.0,47856,p61ookep616,gorilla,<p>night</p>,null,NA,NA,NA,/Users/martincz/GitHub/COGS119/group_fa24_false_recall/analysis/../data/raw_data/p61ookep616_1732223416953.csv
NA,null,html-keyboard-response,26,2.0.0,48871,p61ookep616,gorilla,"<div style=""font-size:60px;"">+</div>",null,NA,NA,NA,/Users/martincz/GitHub/COGS119/group_fa24_false_recall/analysis/../data/raw_data/p61ookep616_1732223416953.csv
NA,null,html-keyboard-response,27,2.0.0,50378,p61ookep616,gorilla,<p>dark</p>,null,NA,NA,NA,/Users/martincz/GitHub/COGS119/group_fa24_false_recall/analysis/../data/raw_data/p61ookep616_1732223416953.csv
NA,null,html-keyboard-response,28,2.0.0,52385,p61ookep616,gorilla,<h3>List 2 </h3>,null,NA,NA,NA,/Users/martincz/GitHub/COGS119/group_fa24_false_recall/analysis/../data/raw_data/p61ookep616_1732223416953.csv
NA,null,html-keyboard-response,29,2.0.0,53400,p61ookep616,gorilla,"<div style=""font-size:60px;"">+</div>",null,NA,NA,NA,/Users/martincz/GitHub/COGS119/group_fa24_false_recall/analysis/../data/raw_data/p61ookep616_1732223416953.csv
NA,null,html-keyboard-response,30,2.0.0,54910,p61ookep616,gorilla,<p>frigid</p>,null,NA,NA,NA,/Users/martincz/GitHub/COGS119/group_fa24_false_recall/analysis/../data/raw_data/p61ookep616_1732223416953.csv
NA,null,html-keyboard-response,31,2.0.0,55915,p61ookep616,gorilla,"<div style=""font-size:60px;"">+</div>",null,NA,NA,NA,/Users/martincz/GitHub/COGS119/group_fa24_false_recall/analysis/../data/raw_data/p61ookep616_1732223416953.csv
NA,null,html-keyboard-response,32,2.0.0,57429,p61ookep616,gorilla,<p>heat</p>,null,NA,NA,NA,/Users/martincz/GitHub/COGS119/group_fa24_false_recall/analysis/../data/raw_data/p61ookep616_1732223416953.csv
NA,null,html-keyboard-response,33,2.0.0,58446,p61ookep616,gorilla,"<div style=""font-size:60px;"">+</div>",null,NA,NA,NA,/Users/martincz/GitHub/COGS119/group_fa24_false_recall/analysis/../data/raw_data/p61ookep616_1732223416953.csv
NA,null,html-keyboard-response,34,2.0.0,59953,p61ookep616,gorilla,<p>air</p>,null,NA,NA,NA,/Users/martincz/GitHub/COGS119/group_fa24_false_recall/analysis/../data/raw_data/p61ookep616_1732223416953.csv
NA,null,html-keyboard-response,35,2.0.0,60956,p61ookep616,gorilla,"<div style=""font-size:60px;"">+</div>",null,NA,NA,NA,/Users/martincz/GitHub/COGS119/group_fa24_false_recall/analysis/../data/raw_data/p61ookep616_1732223416953.csv
NA,null,html-keyboard-response,36,2.0.0,62462,p61ookep616,gorilla,<p>warm</p>,null,NA,NA,NA,/Users/martincz/GitHub/COGS119/group_fa24_false_recall/analysis/../data/raw_data/p61ookep616_1732223416953.csv
NA,null,html-keyboard-response,37,2.0.0,63464,p61ookep616,gorilla,"<div style=""font-size:60px;"">+</div>",null,NA,NA,NA,/Users/martincz/GitHub/COGS119/group_fa24_false_recall/analysis/../data/raw_data/p61ookep616_1732223416953.csv
NA,null,html-keyboard-response,38,2.0.0,64970,p61ookep616,gorilla,<p>winter</p>,null,NA,NA,NA,/Users/martincz/GitHub/COGS119/group_fa24_false_recall/analysis/../data/raw_data/p61ookep616_1732223416953.csv
NA,null,html-keyboard-response,39,2.0.0,65976,p61ookep616,gorilla,"<div style=""font-size:60px;"">+</div>",null,NA,NA,NA,/Users/martincz/GitHub/COGS119/group_fa24_false_recall/analysis/../data/raw_data/p61ookep616_1732223416953.csv
NA,null,html-keyboard-response,40,2.0.0,67483,p61ookep616,gorilla,<p>weather</p>,null,NA,NA,NA,/Users/martincz/GitHub/COGS119/group_fa24_false_recall/analysis/../data/raw_data/p61ookep616_1732223416953.csv
NA,null,html-keyboard-response,41,2.0.0,68490,p61ookep616,gorilla,"<div style=""font-size:60px;"">+</div>",null,NA,NA,NA,/Users/martincz/GitHub/COGS119/group_fa24_false_recall/analysis/../data/raw_data/p61ookep616_1732223416953.csv
NA,null,html-keyboard-response,42,2.0.0,69995,p61ookep616,gorilla,<p>hot</p>,null,NA,NA,NA,/Users/martincz/GitHub/COGS119/group_fa24_false_recall/analysis/../data/raw_data/p61ookep616_1732223416953.csv
NA,null,html-keyboard-response,43,2.0.0,71009,p61ookep616,gorilla,"<div style=""font-size:60px;"">+</div>",null,NA,NA,NA,/Users/martincz/GitHub/COGS119/group_fa24_false_recall/analysis/../data/raw_data/p61ookep616_1732223416953.csv
NA,null,html-keyboard-response,44,2.0.0,72517,p61ookep616,gorilla,<p>chilly</p>,null,NA,NA,NA,/Users/martincz/GitHub/COGS119/group_fa24_false_recall/analysis/../data/raw_data/p61ookep616_1732223416953.csv
NA,null,html-keyboard-response,45,2.0.0,73534,p61ookep616,gorilla,"<div style=""font-size:60px;"">+</div>",null,NA,NA,NA,/Users/martincz/GitHub/COGS119/group_fa24_false_recall/analysis/../data/raw_data/p61ookep616_1732223416953.csv
NA,null,html-keyboard-response,46,2.0.0,75039,p61ookep616,gorilla,<p>snow</p>,null,NA,NA,NA,/Users/martincz/GitHub/COGS119/group_fa24_false_recall/analysis/../data/raw_data/p61ookep616_1732223416953.csv
NA,null,html-keyboard-response,47,2.0.0,76054,p61ookep616,gorilla,"<div style=""font-size:60px;"">+</div>",null,NA,NA,NA,/Users/martincz/GitHub/COGS119/group_fa24_false_recall/analysis/../data/raw_data/p61ookep616_1732223416953.csv
NA,null,html-keyboard-response,48,2.0.0,77566,p61ookep616,gorilla,<p>ice</p>,null,NA,NA,NA,/Users/martincz/GitHub/COGS119/group_fa24_false_recall/analysis/../data/raw_data/p61ookep616_1732223416953.csv
NA,null,html-keyboard-response,49,2.0.0,78581,p61ookep616,gorilla,"<div style=""font-size:60px;"">+</div>",null,NA,NA,NA,/Users/martincz/GitHub/COGS119/group_fa24_false_recall/analysis/../data/raw_data/p61ookep616_1732223416953.csv
NA,null,html-keyboard-response,50,2.0.0,80090,p61ookep616,gorilla,<p>wet</p>,null,NA,NA,NA,/Users/martincz/GitHub/COGS119/group_fa24_false_recall/analysis/../data/raw_data/p61ookep616_1732223416953.csv
NA,null,html-keyboard-response,51,2.0.0,81105,p61ookep616,gorilla,"<div style=""font-size:60px;"">+</div>",null,NA,NA,NA,/Users/martincz/GitHub/COGS119/group_fa24_false_recall/analysis/../data/raw_data/p61ookep616_1732223416953.csv
NA,null,html-keyboard-response,52,2.0.0,82608,p61ookep616,gorilla,<p>freeze</p>,null,NA,NA,NA,/Users/martincz/GitHub/COGS119/group_fa24_false_recall/analysis/../data/raw_data/p61ookep616_1732223416953.csv
NA,null,html-keyboard-response,53,2.0.0,84617,p61ookep616,gorilla,<h3>List 3 </h3>,null,NA,NA,NA,/Users/martincz/GitHub/COGS119/group_fa24_false_recall/analysis/../data/raw_data/p61ookep616_1732223416953.csv
NA,null,html-keyboard-response,54,2.0.0,85628,p61ookep616,gorilla,"<div style=""font-size:60px;"">+</div>",null,NA,NA,NA,/Users/martincz/GitHub/COGS119/group_fa24_false_recall/analysis/../data/raw_data/p61ookep616_1732223416953.csv
NA,null,html-keyboard-response,55,2.0.0,87135,p61ookep616,gorilla,<p>eat</p>,null,NA,NA,NA,/Users/martincz/GitHub/COGS119/group_fa24_false_recall/analysis/../data/raw_data/p61ookep616_1732223416953.csv
NA,null,html-keyboard-response,56,2.0.0,88147,p61ookep616,gorilla,"<div style=""font-size:60px;"">+</div>",null,NA,NA,NA,/Users/martincz/GitHub/COGS119/group_fa24_false_recall/analysis/../data/raw_data/p61ookep616_1732223416953.csv
NA,null,html-keyboard-response,57,2.0.0,89653,p61ookep616,gorilla,<p>rye</p>,null,NA,NA,NA,/Users/martincz/GitHub/COGS119/group_fa24_false_recall/analysis/../data/raw_data/p61ookep616_1732223416953.csv
NA,null,html-keyboard-response,58,2.0.0,90667,p61ookep616,gorilla,"<div style=""font-size:60px;"">+</div>",null,NA,NA,NA,/Users/martincz/GitHub/COGS119/group_fa24_false_recall/analysis/../data/raw_data/p61ookep616_1732223416953.csv
NA,null,html-keyboard-response,59,2.0.0,92185,p61ookep616,gorilla,<p>crust</p>,null,NA,NA,NA,/Users/martincz/GitHub/COGS119/group_fa24_false_recall/analysis/../data/raw_data/p61ookep616_1732223416953.csv
NA,null,html-keyboard-response,60,2.0.0,93202,p61ookep616,gorilla,"<div style=""font-size:60px;"">+</div>",null,NA,NA,NA,/Users/martincz/GitHub/COGS119/group_fa24_false_recall/analysis/../data/raw_data/p61ookep616_1732223416953.csv
NA,null,html-keyboard-response,61,2.0.0,94715,p61ookep616,gorilla,<p>slice</p>,null,NA,NA,NA,/Users/martincz/GitHub/COGS119/group_fa24_false_recall/analysis/../data/raw_data/p61ookep616_1732223416953.csv
NA,null,html-keyboard-response,62,2.0.0,95718,p61ookep616,gorilla,"<div style=""font-size:60px;"">+</div>",null,NA,NA,NA,/Users/martincz/GitHub/COGS119/group_fa24_false_recall/analysis/../data/raw_data/p61ookep616_1732223416953.csv
NA,null,html-keyboard-response,63,2.0.0,97222,p61ookep616,gorilla,<p>food</p>,null,NA,NA,NA,/Users/martincz/GitHub/COGS119/group_fa24_false_recall/analysis/../data/raw_data/p61ookep616_1732223416953.csv
