"success","rt","trial_type","trial_index","plugin_version","time_elapsed","random_id","participant","stimulus","response","word","type","question_order"
"true","1088","fullscreen","0","null","2092","p0kqwtb8qfg","jaguar","","","","",""
"","33292","html-keyboard-response","1","2.0.0","35387","p0kqwtb8qfg","jaguar","Welcome to the Fasle Recall Experiment.<p>You will see and listen to 6 lists of 12-words one at a time. Try to remember as many as you can.</p><p>After the list, you’ll be asked to complete a recognition test.</p><p>Press any key to begin.</p>","s","","",""
"","2724","survey-text","2","2.0.0","38127","p0kqwtb8qfg","jaguar","","{""participant_id"":""jaguar""}","","",""
"","null","html-keyboard-response","3","2.0.0","40131","p0kqwtb8qfg","jaguar","<h3>List 1 </h3>","null","","",""
"","null","html-keyboard-response","4","2.0.0","41133","p0kqwtb8qfg","jaguar","<div style=""font-size:60px;"">+</div>","null","","",""
"","null","html-keyboard-response","5","2.0.0","42635","p0kqwtb8qfg","jaguar","<p>jam</p>","null","","",""
"","null","html-keyboard-response","6","2.0.0","43638","p0kqwtb8qfg","jaguar","<div style=""font-size:60px;"">+</div>","null","","",""
"","null","html-keyboard-response","7","2.0.0","45141","p0kqwtb8qfg","jaguar","<p>slice</p>","null","","",""
"","null","html-keyboard-response","8","2.0.0","46143","p0kqwtb8qfg","jaguar","<div style=""font-size:60px;"">+</div>","null","","",""
"","null","html-keyboard-response","9","2.0.0","47646","p0kqwtb8qfg","jaguar","<p>butter</p>","null","","",""
"","null","html-keyboard-response","10","2.0.0","48649","p0kqwtb8qfg","jaguar","<div style=""font-size:60px;"">+</div>","null","","",""
"","null","html-keyboard-response","11","2.0.0","50151","p0kqwtb8qfg","jaguar","<p>flour</p>","null","","",""
"","null","html-keyboard-response","12","2.0.0","51154","p0kqwtb8qfg","jaguar","<div style=""font-size:60px;"">+</div>","null","","",""
"","null","html-keyboard-response","13","2.0.0","52656","p0kqwtb8qfg","jaguar","<p>food</p>","null","","",""
"","null","html-keyboard-response","14","2.0.0","53659","p0kqwtb8qfg","jaguar","<div style=""font-size:60px;"">+</div>","null","","",""
"","null","html-keyboard-response","15","2.0.0","55161","p0kqwtb8qfg","jaguar","<p>milk</p>","null","","",""
"","null","html-keyboard-response","16","2.0.0","56164","p0kqwtb8qfg","jaguar","<div style=""font-size:60px;"">+</div>","null","","",""
"","null","html-keyboard-response","17","2.0.0","57666","p0kqwtb8qfg","jaguar","<p>jelly</p>","null","","",""
"","null","html-keyboard-response","18","2.0.0","58668","p0kqwtb8qfg","jaguar","<div style=""font-size:60px;"">+</div>","null","","",""
"","null","html-keyboard-response","19","2.0.0","60171","p0kqwtb8qfg","jaguar","<p>crust</p>","null","","",""
"","null","html-keyboard-response","20","2.0.0","61173","p0kqwtb8qfg","jaguar","<div style=""font-size:60px;"">+</div>","null","","",""
"","null","html-keyboard-response","21","2.0.0","62676","p0kqwtb8qfg","jaguar","<p>dough</p>","null","","",""
"","null","html-keyboard-response","22","2.0.0","63678","p0kqwtb8qfg","jaguar","<div style=""font-size:60px;"">+</div>","null","","",""
"","null","html-keyboard-response","23","2.0.0","65181","p0kqwtb8qfg","jaguar","<p>sandwich</p>","null","","",""
"","null","html-keyboard-response","24","2.0.0","66184","p0kqwtb8qfg","jaguar","<div style=""font-size:60px;"">+</div>","null","","",""
"","null","html-keyboard-response","25","2.0.0","67686","p0kqwtb8qfg","jaguar","<p>rye</p>","null","","",""
"","null","html-keyboard-response","26","2.0.0","68688","p0kqwtb8qfg","jaguar","<div style=""font-size:60px;"">+</div>","null","","",""
"","null","html-keyboard-response","27","2.0.0","70191","p0kqwtb8qfg","jaguar","<p>eat</p>","null","","",""
"","null","html-keyboard-response","28","2.0.0","72193","p0kqwtb8qfg","jaguar","<h3>List 2 </h3>","null","","",""
"","null","html-keyboard-response","29","2.0.0","73195","p0kqwtb8qfg","jaguar","<div style=""font-size:60px;"">+</div>","null","","",""
"","null","html-keyboard-response","30","2.0.0","74697","p0kqwtb8qfg","jaguar","<p>death</p>","null","","",""
"","null","html-keyboard-response","31","2.0.0","75699","p0kqwtb8qfg","jaguar","<div style=""font-size:60px;"">+</div>","null","","",""
"","null","html-keyboard-response","32","2.0.0","77201","p0kqwtb8qfg","jaguar","<p>night</p>","null","","",""
"","null","html-keyboard-response","33","2.0.0","78204","p0kqwtb8qfg","jaguar","<div style=""font-size:60px;"">+</div>","null","","",""
"","null","html-keyboard-response","34","2.0.0","79707","p0kqwtb8qfg","jaguar","<p>bottom</p>","null","","",""
"","null","html-keyboard-response","35","2.0.0","80709","p0kqwtb8qfg","jaguar","<div style=""font-size:60px;"">+</div>","null","","",""
"","null","html-keyboard-response","36","2.0.0","82211","p0kqwtb8qfg","jaguar","<p>grief</p>","null","","",""
"","null","html-keyboard-response","37","2.0.0","83213","p0kqwtb8qfg","jaguar","<div style=""font-size:60px;"">+</div>","null","","",""
"","null","html-keyboard-response","38","2.0.0","84715","p0kqwtb8qfg","jaguar","<p>charred</p>","null","","",""
"","null","html-keyboard-response","39","2.0.0","85718","p0kqwtb8qfg","jaguar","<div style=""font-size:60px;"">+</div>","null","","",""
"","null","html-keyboard-response","40","2.0.0","87220","p0kqwtb8qfg","jaguar","<p>white</p>","null","","",""
"","null","html-keyboard-response","41","2.0.0","88222","p0kqwtb8qfg","jaguar","<div style=""font-size:60px;"">+</div>","null","","",""
"","null","html-keyboard-response","42","2.0.0","89724","p0kqwtb8qfg","jaguar","<p>cat</p>","null","","",""
"","null","html-keyboard-response","43","2.0.0","90726","p0kqwtb8qfg","jaguar","<div style=""font-size:60px;"">+</div>","null","","",""
"","null","html-keyboard-response","44","2.0.0","92231","p0kqwtb8qfg","jaguar","<p>dark</p>","null","","",""
"","null","html-keyboard-response","45","2.0.0","93234","p0kqwtb8qfg","jaguar","<div style=""font-size:60px;"">+</div>","null","","",""
"","null","html-keyboard-response","46","2.0.0","94737","p0kqwtb8qfg","jaguar","<p>blue</p>","null","","",""
"","null","html-keyboard-response","47","2.0.0","95739","p0kqwtb8qfg","jaguar","<div style=""font-size:60px;"">+</div>","null","","",""
"","null","html-keyboard-response","48","2.0.0","97241","p0kqwtb8qfg","jaguar","<p>color</p>","null","","",""
"","null","html-keyboard-response","49","2.0.0","98244","p0kqwtb8qfg","jaguar","<div style=""font-size:60px;"">+</div>","null","","",""
"","null","html-keyboard-response","50","2.0.0","99746","p0kqwtb8qfg","jaguar","<p>ink</p>","null","","",""
"","null","html-keyboard-response","51","2.0.0","100748","p0kqwtb8qfg","jaguar","<div style=""font-size:60px;"">+</div>","null","","",""
"","null","html-keyboard-response","52","2.0.0","102251","p0kqwtb8qfg","jaguar","<p>funeral</p>","null","","",""
"","null","html-keyboard-response","53","2.0.0","104253","p0kqwtb8qfg","jaguar","<h3>List 3 </h3>","null","","",""
"","null","html-keyboard-response","54","2.0.0","105256","p0kqwtb8qfg","jaguar","<div style=""font-size:60px;"">+</div>","null","","",""
"","null","html-keyboard-response","55","2.0.0","106758","p0kqwtb8qfg","jaguar","<p>ire</p>","null","","",""
"","null","html-keyboard-response","56","2.0.0","107760","p0kqwtb8qfg","jaguar","<div style=""font-size:60px;"">+</div>","null","","",""
"","null","html-keyboard-response","57","2.0.0","109263","p0kqwtb8qfg","jaguar","<p>mad</p>","null","","",""
"","null","html-keyboard-response","58","2.0.0","110265","p0kqwtb8qfg","jaguar","<div style=""font-size:60px;"">+</div>","null","","",""
"","null","html-keyboard-response","59","2.0.0","111767","p0kqwtb8qfg","jaguar","<p>mean</p>","null","","",""
"","null","html-keyboard-response","60","2.0.0","112770","p0kqwtb8qfg","jaguar","<div style=""font-size:60px;"">+</div>","null","","",""
"","null","html-keyboard-response","61","2.0.0","114272","p0kqwtb8qfg","jaguar","<p>wrath</p>","null","","",""
"","null","html-keyboard-response","62","2.0.0","115274","p0kqwtb8qfg","jaguar","<div style=""font-size:60px;"">+</div>","null","","",""
"","null","html-keyboard-response","63","2.0.0","116777","p0kqwtb8qfg","jaguar","<p>fight</p>","null","","",""
"","null","html-keyboard-response","64","2.0.0","117779","p0kqwtb8qfg","jaguar","<div style=""font-size:60px;"">+</div>","null","","",""
"","null","html-keyboard-response","65","2.0.0","119281","p0kqwtb8qfg","jaguar","<p>fear</p>","null","","",""
"","null","html-keyboard-response","66","2.0.0","120283","p0kqwtb8qfg","jaguar","<div style=""font-size:60px;"">+</div>","null","","",""
"","null","html-keyboard-response","67","2.0.0","121786","p0kqwtb8qfg","jaguar","<p>happy</p>","null","","",""
"","null","html-keyboard-response","68","2.0.0","122788","p0kqwtb8qfg","jaguar","<div style=""font-size:60px;"">+</div>","null","","",""
"","null","html-keyboard-response","69","2.0.0","124290","p0kqwtb8qfg","jaguar","<p>rage</p>","null","","",""
"","null","html-keyboard-response","70","2.0.0","125292","p0kqwtb8qfg","jaguar","<div style=""font-size:60px;"">+</div>","null","","",""
"","null","html-keyboard-response","71","2.0.0","126795","p0kqwtb8qfg","jaguar","<p>temper</p>","null","","",""
"","null","html-keyboard-response","72","2.0.0","127797","p0kqwtb8qfg","jaguar","<div style=""font-size:60px;"">+</div>","null","","",""
"","null","html-keyboard-response","73","2.0.0","129300","p0kqwtb8qfg","jaguar","<p>fury</p>","null","","",""
"","null","html-keyboard-response","74","2.0.0","130302","p0kqwtb8qfg","jaguar","<div style=""font-size:60px;"">+</div>","null","","",""
"","null","html-keyboard-response","75","2.0.0","131804","p0kqwtb8qfg","jaguar","<p>hatred</p>","null","","",""
"","null","html-keyboard-response","76","2.0.0","132806","p0kqwtb8qfg","jaguar","<div style=""font-size:60px;"">+</div>","null","","",""
"","null","html-keyboard-response","77","2.0.0","134309","p0kqwtb8qfg","jaguar","<p>hate</p>","null","","",""
"","null","html-keyboard-response","78","2.0.0","136312","p0kqwtb8qfg","jaguar","<h3>List 4 </h3>","null","","",""
"","null","html-keyboard-response","79","2.0.0","137315","p0kqwtb8qfg","jaguar","<div style=""font-size:60px;"">+</div>","null","","",""
"","null","html-keyboard-response","80","2.0.0","138817","p0kqwtb8qfg","jaguar","<p>table</p>","null","","",""
"","null","html-keyboard-response","81","2.0.0","139820","p0kqwtb8qfg","jaguar","<div style=""font-size:60px;"">+</div>","null","","",""
"","null","html-keyboard-response","82","2.0.0","141322","p0kqwtb8qfg","jaguar","<p>stool</p>","null","","",""
"","null","html-keyboard-response","83","2.0.0","142325","p0kqwtb8qfg","jaguar","<div style=""font-size:60px;"">+</div>","null","","",""
"","null","html-keyboard-response","84","2.0.0","143827","p0kqwtb8qfg","jaguar","<p>desk</p>","null","","",""
"","null","html-keyboard-response","85","2.0.0","144830","p0kqwtb8qfg","jaguar","<div style=""font-size:60px;"">+</div>","null","","",""
"","null","html-keyboard-response","86","2.0.0","146332","p0kqwtb8qfg","jaguar","<p>cushion</p>","null","","",""
"","null","html-keyboard-response","87","2.0.0","147334","p0kqwtb8qfg","jaguar","<div style=""font-size:60px;"">+</div>","null","","",""
"","null","html-keyboard-response","88","2.0.0","148837","p0kqwtb8qfg","jaguar","<p>swivel</p>","null","","",""
"","null","html-keyboard-response","89","2.0.0","149840","p0kqwtb8qfg","jaguar","<div style=""font-size:60px;"">+</div>","null","","",""
"","null","html-keyboard-response","90","2.0.0","151342","p0kqwtb8qfg","jaguar","<p>wood</p>","null","","",""
"","null","html-keyboard-response","91","2.0.0","152344","p0kqwtb8qfg","jaguar","<div style=""font-size:60px;"">+</div>","null","","",""
"","null","html-keyboard-response","92","2.0.0","153846","p0kqwtb8qfg","jaguar","<p>sofa</p>","null","","",""
"","null","html-keyboard-response","93","2.0.0","154848","p0kqwtb8qfg","jaguar","<div style=""font-size:60px;"">+</div>","null","","",""
"","null","html-keyboard-response","94","2.0.0","156350","p0kqwtb8qfg","jaguar","<p>couch</p>","null","","",""
"","null","html-keyboard-response","95","2.0.0","157353","p0kqwtb8qfg","jaguar","<div style=""font-size:60px;"">+</div>","null","","",""
"","null","html-keyboard-response","96","2.0.0","158855","p0kqwtb8qfg","jaguar","<p>recliner</p>","null","","",""
"","null","html-keyboard-response","97","2.0.0","159858","p0kqwtb8qfg","jaguar","<div style=""font-size:60px;"">+</div>","null","","",""
"","null","html-keyboard-response","98","2.0.0","161362","p0kqwtb8qfg","jaguar","<p>seat</p>","null","","",""
"","null","html-keyboard-response","99","2.0.0","162364","p0kqwtb8qfg","jaguar","<div style=""font-size:60px;"">+</div>","null","","",""
"","null","html-keyboard-response","100","2.0.0","163867","p0kqwtb8qfg","jaguar","<p>sit</p>","null","","",""
"","null","html-keyboard-response","101","2.0.0","164870","p0kqwtb8qfg","jaguar","<div style=""font-size:60px;"">+</div>","null","","",""
"","null","html-keyboard-response","102","2.0.0","166372","p0kqwtb8qfg","jaguar","<p>legs</p>","null","","",""
"","null","html-keyboard-response","103","2.0.0","168374","p0kqwtb8qfg","jaguar","<h3>List 5 </h3>","null","","",""
"","null","html-keyboard-response","104","2.0.0","169377","p0kqwtb8qfg","jaguar","<div style=""font-size:60px;"">+</div>","null","","",""
"","null","html-keyboard-response","105","2.0.0","170879","p0kqwtb8qfg","jaguar","<p>ill</p>","null","","",""
"","null","html-keyboard-response","106","2.0.0","171882","p0kqwtb8qfg","jaguar","<div style=""font-size:60px;"">+</div>","null","","",""
"","null","html-keyboard-response","107","2.0.0","173386","p0kqwtb8qfg","jaguar","<p>stethoscope</p>","null","","",""
"","null","html-keyboard-response","108","2.0.0","174390","p0kqwtb8qfg","jaguar","<div style=""font-size:60px;"">+</div>","null","","",""
"","null","html-keyboard-response","109","2.0.0","175892","p0kqwtb8qfg","jaguar","<p>lawyer</p>","null","","",""
"","null","html-keyboard-response","110","2.0.0","176896","p0kqwtb8qfg","jaguar","<div style=""font-size:60px;"">+</div>","null","","",""
"","null","html-keyboard-response","111","2.0.0","178399","p0kqwtb8qfg","jaguar","<p>nurse</p>","null","","",""
"","null","html-keyboard-response","112","2.0.0","179401","p0kqwtb8qfg","jaguar","<div style=""font-size:60px;"">+</div>","null","","",""
"","null","html-keyboard-response","113","2.0.0","180904","p0kqwtb8qfg","jaguar","<p>medicine</p>","null","","",""
"","null","html-keyboard-response","114","2.0.0","181906","p0kqwtb8qfg","jaguar","<div style=""font-size:60px;"">+</div>","null","","",""
"","null","html-keyboard-response","115","2.0.0","183408","p0kqwtb8qfg","jaguar","<p>office</p>","null","","",""
"","null","html-keyboard-response","116","2.0.0","184410","p0kqwtb8qfg","jaguar","<div style=""font-size:60px;"">+</div>","null","","",""
"","null","html-keyboard-response","117","2.0.0","185912","p0kqwtb8qfg","jaguar","<p>dentist</p>","null","","",""
"","null","html-keyboard-response","118","2.0.0","186915","p0kqwtb8qfg","jaguar","<div style=""font-size:60px;"">+</div>","null","","",""
"","null","html-keyboard-response","119","2.0.0","188418","p0kqwtb8qfg","jaguar","<p>patient</p>","null","","",""
"","null","html-keyboard-response","120","2.0.0","189421","p0kqwtb8qfg","jaguar","<div style=""font-size:60px;"">+</div>","null","","",""
"","null","html-keyboard-response","121","2.0.0","190924","p0kqwtb8qfg","jaguar","<p>sick</p>","null","","",""
"","null","html-keyboard-response","122","2.0.0","191927","p0kqwtb8qfg","jaguar","<div style=""font-size:60px;"">+</div>","null","","",""
"","null","html-keyboard-response","123","2.0.0","193429","p0kqwtb8qfg","jaguar","<p>hospital</p>","null","","",""
"","null","html-keyboard-response","124","2.0.0","194431","p0kqwtb8qfg","jaguar","<div style=""font-size:60px;"">+</div>","null","","",""
"","null","html-keyboard-response","125","2.0.0","195934","p0kqwtb8qfg","jaguar","<p>physician</p>","null","","",""
"","null","html-keyboard-response","126","2.0.0","196936","p0kqwtb8qfg","jaguar","<div style=""font-size:60px;"">+</div>","null","","",""
"","null","html-keyboard-response","127","2.0.0","198438","p0kqwtb8qfg","jaguar","<p>health</p>","null","","",""
"","null","html-keyboard-response","128","2.0.0","200442","p0kqwtb8qfg","jaguar","<h3>List 6 </h3>","null","","",""
"","null","html-keyboard-response","129","2.0.0","201445","p0kqwtb8qfg","jaguar","<div style=""font-size:60px;"">+</div>","null","","",""
"","null","html-keyboard-response","130","2.0.0","202947","p0kqwtb8qfg","jaguar","<p>heat</p>","null","","",""
"","null","html-keyboard-response","131","2.0.0","203950","p0kqwtb8qfg","jaguar","<div style=""font-size:60px;"">+</div>","null","","",""
"","null","html-keyboard-response","132","2.0.0","205453","p0kqwtb8qfg","jaguar","<p>snow</p>","null","","",""
"","null","html-keyboard-response","133","2.0.0","206456","p0kqwtb8qfg","jaguar","<div style=""font-size:60px;"">+</div>","null","","",""
"","null","html-keyboard-response","134","2.0.0","207957","p0kqwtb8qfg","jaguar","<p>freeze</p>","null","","",""
"","null","html-keyboard-response","135","2.0.0","208960","p0kqwtb8qfg","jaguar","<div style=""font-size:60px;"">+</div>","null","","",""
"","null","html-keyboard-response","136","2.0.0","210462","p0kqwtb8qfg","jaguar","<p>weather</p>","null","","",""
"","null","html-keyboard-response","137","2.0.0","211464","p0kqwtb8qfg","jaguar","<div style=""font-size:60px;"">+</div>","null","","",""
"","null","html-keyboard-response","138","2.0.0","212966","p0kqwtb8qfg","jaguar","<p>chilly</p>","null","","",""
"","null","html-keyboard-response","139","2.0.0","213968","p0kqwtb8qfg","jaguar","<div style=""font-size:60px;"">+</div>","null","","",""
"","null","html-keyboard-response","140","2.0.0","215471","p0kqwtb8qfg","jaguar","<p>air</p>","null","","",""
"","null","html-keyboard-response","141","2.0.0","216473","p0kqwtb8qfg","jaguar","<div style=""font-size:60px;"">+</div>","null","","",""
"","null","html-keyboard-response","142","2.0.0","217976","p0kqwtb8qfg","jaguar","<p>warm</p>","null","","",""
"","null","html-keyboard-response","143","2.0.0","218978","p0kqwtb8qfg","jaguar","<div style=""font-size:60px;"">+</div>","null","","",""
"","null","html-keyboard-response","144","2.0.0","220480","p0kqwtb8qfg","jaguar","<p>frigid</p>","null","","",""
"","null","html-keyboard-response","145","2.0.0","221482","p0kqwtb8qfg","jaguar","<div style=""font-size:60px;"">+</div>","null","","",""
"","null","html-keyboard-response","146","2.0.0","222984","p0kqwtb8qfg","jaguar","<p>ice</p>","null","","",""
"","null","html-keyboard-response","147","2.0.0","223987","p0kqwtb8qfg","jaguar","<div style=""font-size:60px;"">+</div>","null","","",""
"","null","html-keyboard-response","148","2.0.0","225489","p0kqwtb8qfg","jaguar","<p>winter</p>","null","","",""
"","null","html-keyboard-response","149","2.0.0","226492","p0kqwtb8qfg","jaguar","<div style=""font-size:60px;"">+</div>","null","","",""
"","null","html-keyboard-response","150","2.0.0","227995","p0kqwtb8qfg","jaguar","<p>hot</p>","null","","",""
"","null","html-keyboard-response","151","2.0.0","228997","p0kqwtb8qfg","jaguar","<div style=""font-size:60px;"">+</div>","null","","",""
"","null","html-keyboard-response","152","2.0.0","230499","p0kqwtb8qfg","jaguar","<p>wet</p>","null","","",""
"","25349","html-keyboard-response","153","2.0.0","255850","p0kqwtb8qfg","jaguar","Now you will rate your confidence that each word occurred on the list. <p>Please indicate whether you think the word was definitely new, probably new, probably old, or definitely old.</p> <p>Press any key to continue.</P>"," ","","",""
"","24936","survey-likert","154","null","280791","p0kqwtb8qfg","jaguar","","{""Q0"":3}","slice","recognition","[0]"
"","7323","survey-likert","155","null","288117","p0kqwtb8qfg","jaguar","","{""Q0"":1}","drift","recognition","[0]"
"","2689","survey-likert","156","null","290808","p0kqwtb8qfg","jaguar","","{""Q0"":0}","clock","recognition","[0]"
"","2526","survey-likert","157","null","293336","p0kqwtb8qfg","jaguar","","{""Q0"":3}","dentist","recognition","[0]"
"","4147","survey-likert","158","null","297485","p0kqwtb8qfg","jaguar","","{""Q0"":1}","curtain","recognition","[0]"
"","1433","survey-likert","159","null","298919","p0kqwtb8qfg","jaguar","","{""Q0"":1}","book","recognition","[0]"
"","1384","survey-likert","160","null","300305","p0kqwtb8qfg","jaguar","","{""Q0"":1}","elephant","recognition","[0]"
"","3927","survey-likert","161","null","304234","p0kqwtb8qfg","jaguar","","{""Q0"":2}","procedure","recognition","[0]"
"","2505","survey-likert","162","null","306740","p0kqwtb8qfg","jaguar","","{""Q0"":3}","anger","recognition","[0]"
"","1573","survey-likert","163","null","308315","p0kqwtb8qfg","jaguar","","{""Q0"":3}","seat","recognition","[0]"
"","1293","survey-likert","164","null","309610","p0kqwtb8qfg","jaguar","","{""Q0"":3}","cold","recognition","[0]"
"","2057","survey-likert","165","null","311668","p0kqwtb8qfg","jaguar","","{""Q0"":1}","balloon","recognition","[0]"
"","4061","survey-likert","166","null","315731","p0kqwtb8qfg","jaguar","","{""Q0"":0}","frame","recognition","[0]"
"","2648","survey-likert","167","null","318380","p0kqwtb8qfg","jaguar","","{""Q0"":0}","basket","recognition","[0]"
"","5253","survey-likert","168","null","323635","p0kqwtb8qfg","jaguar","","{""Q0"":2}","oven","recognition","[0]"
"","2751","survey-likert","169","null","326387","p0kqwtb8qfg","jaguar","","{""Q0"":3}","fear","recognition","[0]"
"","2179","survey-likert","170","null","328567","p0kqwtb8qfg","jaguar","","{""Q0"":0}","planet","recognition","[0]"
"","2040","survey-likert","171","null","330609","p0kqwtb8qfg","jaguar","","{""Q0"":1}","guitar","recognition","[0]"
"","4162","survey-likert","172","null","334773","p0kqwtb8qfg","jaguar","","{""Q0"":0}","noise","recognition","[0]"
"","1333","survey-likert","173","null","336108","p0kqwtb8qfg","jaguar","","{""Q0"":0}","lighthouse","recognition","[0]"
"","1919","survey-likert","174","null","338029","p0kqwtb8qfg","jaguar","","{""Q0"":3}","black","recognition","[0]"
"","4373","survey-likert","175","null","342404","p0kqwtb8qfg","jaguar","","{""Q0"":3}","doctor","recognition","[0]"
"","2970","survey-likert","176","null","345376","p0kqwtb8qfg","jaguar","","{""Q0"":3}","swivel","recognition","[0]"
"","1699","survey-likert","177","null","347077","p0kqwtb8qfg","jaguar","","{""Q0"":2}","shade","recognition","[0]"
"","2446","survey-likert","178","null","349525","p0kqwtb8qfg","jaguar","","{""Q0"":3}","jam","recognition","[0]"
"","1170","survey-likert","179","null","350697","p0kqwtb8qfg","jaguar","","{""Q0"":3}","bread","recognition","[0]"
"","3132","survey-likert","180","null","353831","p0kqwtb8qfg","jaguar","","{""Q0"":0}","river","recognition","[0]"
"","1408","survey-likert","181","null","355241","p0kqwtb8qfg","jaguar","","{""Q0"":0}","mountain","recognition","[0]"
"","1855","survey-likert","182","null","357098","p0kqwtb8qfg","jaguar","","{""Q0"":1}","window","recognition","[0]"
"","1812","survey-likert","183","null","358912","p0kqwtb8qfg","jaguar","","{""Q0"":3}","ill","recognition","[0]"
"","1514","survey-likert","184","null","360428","p0kqwtb8qfg","jaguar","","{""Q0"":3}","cat","recognition","[0]"
"","2001","survey-likert","185","null","362431","p0kqwtb8qfg","jaguar","","{""Q0"":0}","void","recognition","[0]"
"","1305","survey-likert","186","null","363738","p0kqwtb8qfg","jaguar","","{""Q0"":0}","balance","recognition","[0]"
"","2705","survey-likert","187","null","366446","p0kqwtb8qfg","jaguar","","{""Q0"":2}","winter","recognition","[0]"
"","2847","survey-likert","188","null","369295","p0kqwtb8qfg","jaguar","","{""Q0"":3}","fight","recognition","[0]"
"","1179","survey-likert","189","null","370475","p0kqwtb8qfg","jaguar","","{""Q0"":3}","chair","recognition","[0]"
"","885","survey-likert","190","null","371362","p0kqwtb8qfg","jaguar","","{""Q0"":3}","blue","recognition","[0]"
"","962","survey-likert","191","null","372326","p0kqwtb8qfg","jaguar","","{""Q0"":3}","freeze","recognition","[0]"
"","2181","survey-likert","192","null","374509","p0kqwtb8qfg","jaguar","","{""Q0"":0}","attention","recognition","[0]"
"","1698","survey-likert","193","null","376209","p0kqwtb8qfg","jaguar","","{""Q0"":0}","laptop","recognition","[0]"
"","1154","survey-likert","194","null","377365","p0kqwtb8qfg","jaguar","","{""Q0"":0}","camera","recognition","[0]"
"","2551","survey-likert","195","null","379918","p0kqwtb8qfg","jaguar","","{""Q0"":2}","conflict","recognition","[0]"
"","118971","survey-text","196","2.0.0","498921","p0kqwtb8qfg","jaguar","","{""age"":""32"",""gender"":""male"",""Q2"":""To test the relationship between how well a word fits into a group and how well you can remember it"",""Q3"":""Sometimes pressing a key did not take me to the next screen""}","","",""
