"success","rt","trial_type","trial_index","plugin_version","time_elapsed","random_id","participant","stimulus","response","word","type","question_order"
"true","2241","fullscreen","0","null","3246","p3awyfzqtp5","eagle","","","","",""
"","27350","html-keyboard-response","1","2.0.0","30600","p3awyfzqtp5","eagle","Welcome to the Fasle Recall Experiment.<p>You will see and listen to 6 lists of 12-words one at a time. Try to remember as many as you can.</p><p>After the list, you’ll be asked to complete a recognition test.</p><p>Press any key to begin.</p>"," ","","",""
"","3989","survey-text","2","2.0.0","34594","p3awyfzqtp5","eagle","","{""participant_id"":""eagle""}","","",""
"","null","html-keyboard-response","3","2.0.0","36597","p3awyfzqtp5","eagle","<h3>List 1 </h3>","null","","",""
"","null","html-keyboard-response","4","2.0.0","37601","p3awyfzqtp5","eagle","<div style=""font-size:60px;"">+</div>","null","","",""
"","null","html-keyboard-response","5","2.0.0","39103","p3awyfzqtp5","eagle","<p>hatred</p>","null","","",""
"","null","html-keyboard-response","6","2.0.0","40105","p3awyfzqtp5","eagle","<div style=""font-size:60px;"">+</div>","null","","",""
"","null","html-keyboard-response","7","2.0.0","41607","p3awyfzqtp5","eagle","<p>rage</p>","null","","",""
"","null","html-keyboard-response","8","2.0.0","42611","p3awyfzqtp5","eagle","<div style=""font-size:60px;"">+</div>","null","","",""
"","null","html-keyboard-response","9","2.0.0","44114","p3awyfzqtp5","eagle","<p>wrath</p>","null","","",""
"","null","html-keyboard-response","10","2.0.0","45116","p3awyfzqtp5","eagle","<div style=""font-size:60px;"">+</div>","null","","",""
"","null","html-keyboard-response","11","2.0.0","46619","p3awyfzqtp5","eagle","<p>temper</p>","null","","",""
"","null","html-keyboard-response","12","2.0.0","47622","p3awyfzqtp5","eagle","<div style=""font-size:60px;"">+</div>","null","","",""
"","null","html-keyboard-response","13","2.0.0","49125","p3awyfzqtp5","eagle","<p>mad</p>","null","","",""
"","null","html-keyboard-response","14","2.0.0","50127","p3awyfzqtp5","eagle","<div style=""font-size:60px;"">+</div>","null","","",""
"","null","html-keyboard-response","15","2.0.0","51630","p3awyfzqtp5","eagle","<p>fury</p>","null","","",""
"","null","html-keyboard-response","16","2.0.0","52633","p3awyfzqtp5","eagle","<div style=""font-size:60px;"">+</div>","null","","",""
"","null","html-keyboard-response","17","2.0.0","54136","p3awyfzqtp5","eagle","<p>mean</p>","null","","",""
"","null","html-keyboard-response","18","2.0.0","55139","p3awyfzqtp5","eagle","<div style=""font-size:60px;"">+</div>","null","","",""
"","null","html-keyboard-response","19","2.0.0","56641","p3awyfzqtp5","eagle","<p>fear</p>","null","","",""
"","null","html-keyboard-response","20","2.0.0","57644","p3awyfzqtp5","eagle","<div style=""font-size:60px;"">+</div>","null","","",""
"","null","html-keyboard-response","21","2.0.0","59146","p3awyfzqtp5","eagle","<p>happy</p>","null","","",""
"","null","html-keyboard-response","22","2.0.0","60147","p3awyfzqtp5","eagle","<div style=""font-size:60px;"">+</div>","null","","",""
"","null","html-keyboard-response","23","2.0.0","61650","p3awyfzqtp5","eagle","<p>ire</p>","null","","",""
"","null","html-keyboard-response","24","2.0.0","62653","p3awyfzqtp5","eagle","<div style=""font-size:60px;"">+</div>","null","","",""
"","null","html-keyboard-response","25","2.0.0","64155","p3awyfzqtp5","eagle","<p>fight</p>","null","","",""
"","null","html-keyboard-response","26","2.0.0","65158","p3awyfzqtp5","eagle","<div style=""font-size:60px;"">+</div>","null","","",""
"","null","html-keyboard-response","27","2.0.0","66661","p3awyfzqtp5","eagle","<p>hate</p>","null","","",""
"","null","html-keyboard-response","28","2.0.0","68663","p3awyfzqtp5","eagle","<h3>List 2 </h3>","null","","",""
"","null","html-keyboard-response","29","2.0.0","69666","p3awyfzqtp5","eagle","<div style=""font-size:60px;"">+</div>","null","","",""
"","null","html-keyboard-response","30","2.0.0","71169","p3awyfzqtp5","eagle","<p>physician</p>","null","","",""
"","null","html-keyboard-response","31","2.0.0","72172","p3awyfzqtp5","eagle","<div style=""font-size:60px;"">+</div>","null","","",""
"","null","html-keyboard-response","32","2.0.0","73674","p3awyfzqtp5","eagle","<p>office</p>","null","","",""
"","null","html-keyboard-response","33","2.0.0","74677","p3awyfzqtp5","eagle","<div style=""font-size:60px;"">+</div>","null","","",""
"","null","html-keyboard-response","34","2.0.0","76180","p3awyfzqtp5","eagle","<p>ill</p>","null","","",""
"","null","html-keyboard-response","35","2.0.0","77183","p3awyfzqtp5","eagle","<div style=""font-size:60px;"">+</div>","null","","",""
"","null","html-keyboard-response","36","2.0.0","78685","p3awyfzqtp5","eagle","<p>medicine</p>","null","","",""
"","null","html-keyboard-response","37","2.0.0","79686","p3awyfzqtp5","eagle","<div style=""font-size:60px;"">+</div>","null","","",""
"","null","html-keyboard-response","38","2.0.0","81189","p3awyfzqtp5","eagle","<p>lawyer</p>","null","","",""
"","null","html-keyboard-response","39","2.0.0","82192","p3awyfzqtp5","eagle","<div style=""font-size:60px;"">+</div>","null","","",""
"","null","html-keyboard-response","40","2.0.0","83695","p3awyfzqtp5","eagle","<p>health</p>","null","","",""
"","null","html-keyboard-response","41","2.0.0","84698","p3awyfzqtp5","eagle","<div style=""font-size:60px;"">+</div>","null","","",""
"","null","html-keyboard-response","42","2.0.0","86201","p3awyfzqtp5","eagle","<p>patient</p>","null","","",""
"","null","html-keyboard-response","43","2.0.0","87203","p3awyfzqtp5","eagle","<div style=""font-size:60px;"">+</div>","null","","",""
"","null","html-keyboard-response","44","2.0.0","88706","p3awyfzqtp5","eagle","<p>sick</p>","null","","",""
"","null","html-keyboard-response","45","2.0.0","89709","p3awyfzqtp5","eagle","<div style=""font-size:60px;"">+</div>","null","","",""
"","null","html-keyboard-response","46","2.0.0","91212","p3awyfzqtp5","eagle","<p>nurse</p>","null","","",""
"","null","html-keyboard-response","47","2.0.0","92215","p3awyfzqtp5","eagle","<div style=""font-size:60px;"">+</div>","null","","",""
"","null","html-keyboard-response","48","2.0.0","93717","p3awyfzqtp5","eagle","<p>hospital</p>","null","","",""
"","null","html-keyboard-response","49","2.0.0","94719","p3awyfzqtp5","eagle","<div style=""font-size:60px;"">+</div>","null","","",""
"","null","html-keyboard-response","50","2.0.0","96220","p3awyfzqtp5","eagle","<p>dentist</p>","null","","",""
"","null","html-keyboard-response","51","2.0.0","97222","p3awyfzqtp5","eagle","<div style=""font-size:60px;"">+</div>","null","","",""
"","null","html-keyboard-response","52","2.0.0","98725","p3awyfzqtp5","eagle","<p>stethoscope</p>","null","","",""
"","null","html-keyboard-response","53","2.0.0","100727","p3awyfzqtp5","eagle","<h3>List 3 </h3>","null","","",""
"","null","html-keyboard-response","54","2.0.0","101729","p3awyfzqtp5","eagle","<div style=""font-size:60px;"">+</div>","null","","",""
"","null","html-keyboard-response","55","2.0.0","103233","p3awyfzqtp5","eagle","<p>wet</p>","null","","",""
"","null","html-keyboard-response","56","2.0.0","104236","p3awyfzqtp5","eagle","<div style=""font-size:60px;"">+</div>","null","","",""
"","null","html-keyboard-response","57","2.0.0","105739","p3awyfzqtp5","eagle","<p>snow</p>","null","","",""
"","null","html-keyboard-response","58","2.0.0","106741","p3awyfzqtp5","eagle","<div style=""font-size:60px;"">+</div>","null","","",""
"","null","html-keyboard-response","59","2.0.0","108243","p3awyfzqtp5","eagle","<p>freeze</p>","null","","",""
"","null","html-keyboard-response","60","2.0.0","109246","p3awyfzqtp5","eagle","<div style=""font-size:60px;"">+</div>","null","","",""
"","null","html-keyboard-response","61","2.0.0","110749","p3awyfzqtp5","eagle","<p>winter</p>","null","","",""
"","null","html-keyboard-response","62","2.0.0","111752","p3awyfzqtp5","eagle","<div style=""font-size:60px;"">+</div>","null","","",""
"","null","html-keyboard-response","63","2.0.0","113255","p3awyfzqtp5","eagle","<p>ice</p>","null","","",""
"","null","html-keyboard-response","64","2.0.0","114259","p3awyfzqtp5","eagle","<div style=""font-size:60px;"">+</div>","null","","",""
"","null","html-keyboard-response","65","2.0.0","115761","p3awyfzqtp5","eagle","<p>frigid</p>","null","","",""
"","null","html-keyboard-response","66","2.0.0","116763","p3awyfzqtp5","eagle","<div style=""font-size:60px;"">+</div>","null","","",""
"","null","html-keyboard-response","67","2.0.0","118266","p3awyfzqtp5","eagle","<p>heat</p>","null","","",""
"","null","html-keyboard-response","68","2.0.0","119269","p3awyfzqtp5","eagle","<div style=""font-size:60px;"">+</div>","null","","",""
"","null","html-keyboard-response","69","2.0.0","120772","p3awyfzqtp5","eagle","<p>hot</p>","null","","",""
"","null","html-keyboard-response","70","2.0.0","121776","p3awyfzqtp5","eagle","<div style=""font-size:60px;"">+</div>","null","","",""
"","null","html-keyboard-response","71","2.0.0","123278","p3awyfzqtp5","eagle","<p>air</p>","null","","",""
"","null","html-keyboard-response","72","2.0.0","124281","p3awyfzqtp5","eagle","<div style=""font-size:60px;"">+</div>","null","","",""
"","null","html-keyboard-response","73","2.0.0","125782","p3awyfzqtp5","eagle","<p>chilly</p>","null","","",""
"","null","html-keyboard-response","74","2.0.0","126785","p3awyfzqtp5","eagle","<div style=""font-size:60px;"">+</div>","null","","",""
"","null","html-keyboard-response","75","2.0.0","128287","p3awyfzqtp5","eagle","<p>warm</p>","null","","",""
"","null","html-keyboard-response","76","2.0.0","129289","p3awyfzqtp5","eagle","<div style=""font-size:60px;"">+</div>","null","","",""
"","null","html-keyboard-response","77","2.0.0","130792","p3awyfzqtp5","eagle","<p>weather</p>","null","","",""
"","null","html-keyboard-response","78","2.0.0","132795","p3awyfzqtp5","eagle","<h3>List 4 </h3>","null","","",""
"","null","html-keyboard-response","79","2.0.0","133797","p3awyfzqtp5","eagle","<div style=""font-size:60px;"">+</div>","null","","",""
"","null","html-keyboard-response","80","2.0.0","135300","p3awyfzqtp5","eagle","<p>cushion</p>","null","","",""
"","null","html-keyboard-response","81","2.0.0","136303","p3awyfzqtp5","eagle","<div style=""font-size:60px;"">+</div>","null","","",""
"","null","html-keyboard-response","82","2.0.0","137807","p3awyfzqtp5","eagle","<p>swivel</p>","null","","",""
"","null","html-keyboard-response","83","2.0.0","138810","p3awyfzqtp5","eagle","<div style=""font-size:60px;"">+</div>","null","","",""
"","null","html-keyboard-response","84","2.0.0","140312","p3awyfzqtp5","eagle","<p>sit</p>","null","","",""
"","null","html-keyboard-response","85","2.0.0","141317","p3awyfzqtp5","eagle","<div style=""font-size:60px;"">+</div>","null","","",""
"","null","html-keyboard-response","86","2.0.0","142820","p3awyfzqtp5","eagle","<p>stool</p>","null","","",""
"","null","html-keyboard-response","87","2.0.0","143822","p3awyfzqtp5","eagle","<div style=""font-size:60px;"">+</div>","null","","",""
"","null","html-keyboard-response","88","2.0.0","145325","p3awyfzqtp5","eagle","<p>legs</p>","null","","",""
"","null","html-keyboard-response","89","2.0.0","146327","p3awyfzqtp5","eagle","<div style=""font-size:60px;"">+</div>","null","","",""
"","null","html-keyboard-response","90","2.0.0","147830","p3awyfzqtp5","eagle","<p>desk</p>","null","","",""
"","null","html-keyboard-response","91","2.0.0","148831","p3awyfzqtp5","eagle","<div style=""font-size:60px;"">+</div>","null","","",""
"","null","html-keyboard-response","92","2.0.0","150334","p3awyfzqtp5","eagle","<p>recliner</p>","null","","",""
"","null","html-keyboard-response","93","2.0.0","151336","p3awyfzqtp5","eagle","<div style=""font-size:60px;"">+</div>","null","","",""
"","null","html-keyboard-response","94","2.0.0","152839","p3awyfzqtp5","eagle","<p>table</p>","null","","",""
"","null","html-keyboard-response","95","2.0.0","153841","p3awyfzqtp5","eagle","<div style=""font-size:60px;"">+</div>","null","","",""
"","null","html-keyboard-response","96","2.0.0","155344","p3awyfzqtp5","eagle","<p>wood</p>","null","","",""
"","null","html-keyboard-response","97","2.0.0","156347","p3awyfzqtp5","eagle","<div style=""font-size:60px;"">+</div>","null","","",""
"","null","html-keyboard-response","98","2.0.0","157849","p3awyfzqtp5","eagle","<p>seat</p>","null","","",""
"","null","html-keyboard-response","99","2.0.0","158851","p3awyfzqtp5","eagle","<div style=""font-size:60px;"">+</div>","null","","",""
"","null","html-keyboard-response","100","2.0.0","160354","p3awyfzqtp5","eagle","<p>couch</p>","null","","",""
"","null","html-keyboard-response","101","2.0.0","161356","p3awyfzqtp5","eagle","<div style=""font-size:60px;"">+</div>","null","","",""
"","null","html-keyboard-response","102","2.0.0","162859","p3awyfzqtp5","eagle","<p>sofa</p>","null","","",""
"","null","html-keyboard-response","103","2.0.0","164863","p3awyfzqtp5","eagle","<h3>List 5 </h3>","null","","",""
"","null","html-keyboard-response","104","2.0.0","165865","p3awyfzqtp5","eagle","<div style=""font-size:60px;"">+</div>","null","","",""
"","null","html-keyboard-response","105","2.0.0","167368","p3awyfzqtp5","eagle","<p>eat</p>","null","","",""
"","null","html-keyboard-response","106","2.0.0","168371","p3awyfzqtp5","eagle","<div style=""font-size:60px;"">+</div>","null","","",""
"","null","html-keyboard-response","107","2.0.0","169874","p3awyfzqtp5","eagle","<p>rye</p>","null","","",""
"","null","html-keyboard-response","108","2.0.0","170877","p3awyfzqtp5","eagle","<div style=""font-size:60px;"">+</div>","null","","",""
"","null","html-keyboard-response","109","2.0.0","172380","p3awyfzqtp5","eagle","<p>sandwich</p>","null","","",""
"","null","html-keyboard-response","110","2.0.0","173383","p3awyfzqtp5","eagle","<div style=""font-size:60px;"">+</div>","null","","",""
"","null","html-keyboard-response","111","2.0.0","174885","p3awyfzqtp5","eagle","<p>butter</p>","null","","",""
"","null","html-keyboard-response","112","2.0.0","175888","p3awyfzqtp5","eagle","<div style=""font-size:60px;"">+</div>","null","","",""
"","null","html-keyboard-response","113","2.0.0","177391","p3awyfzqtp5","eagle","<p>flour</p>","null","","",""
"","null","html-keyboard-response","114","2.0.0","178394","p3awyfzqtp5","eagle","<div style=""font-size:60px;"">+</div>","null","","",""
"","null","html-keyboard-response","115","2.0.0","179896","p3awyfzqtp5","eagle","<p>dough</p>","null","","",""
"","null","html-keyboard-response","116","2.0.0","180898","p3awyfzqtp5","eagle","<div style=""font-size:60px;"">+</div>","null","","",""
"","null","html-keyboard-response","117","2.0.0","182400","p3awyfzqtp5","eagle","<p>jelly</p>","null","","",""
"","null","html-keyboard-response","118","2.0.0","183403","p3awyfzqtp5","eagle","<div style=""font-size:60px;"">+</div>","null","","",""
"","null","html-keyboard-response","119","2.0.0","184906","p3awyfzqtp5","eagle","<p>food</p>","null","","",""
"","null","html-keyboard-response","120","2.0.0","185909","p3awyfzqtp5","eagle","<div style=""font-size:60px;"">+</div>","null","","",""
"","null","html-keyboard-response","121","2.0.0","187411","p3awyfzqtp5","eagle","<p>crust</p>","null","","",""
"","null","html-keyboard-response","122","2.0.0","188414","p3awyfzqtp5","eagle","<div style=""font-size:60px;"">+</div>","null","","",""
"","null","html-keyboard-response","123","2.0.0","189916","p3awyfzqtp5","eagle","<p>slice</p>","null","","",""
"","null","html-keyboard-response","124","2.0.0","190918","p3awyfzqtp5","eagle","<div style=""font-size:60px;"">+</div>","null","","",""
"","null","html-keyboard-response","125","2.0.0","192421","p3awyfzqtp5","eagle","<p>jam</p>","null","","",""
"","null","html-keyboard-response","126","2.0.0","193423","p3awyfzqtp5","eagle","<div style=""font-size:60px;"">+</div>","null","","",""
"","null","html-keyboard-response","127","2.0.0","194926","p3awyfzqtp5","eagle","<p>milk</p>","null","","",""
"","null","html-keyboard-response","128","2.0.0","196929","p3awyfzqtp5","eagle","<h3>List 6 </h3>","null","","",""
"","null","html-keyboard-response","129","2.0.0","197932","p3awyfzqtp5","eagle","<div style=""font-size:60px;"">+</div>","null","","",""
"","null","html-keyboard-response","130","2.0.0","199435","p3awyfzqtp5","eagle","<p>funeral</p>","null","","",""
"","null","html-keyboard-response","131","2.0.0","200436","p3awyfzqtp5","eagle","<div style=""font-size:60px;"">+</div>","null","","",""
"","null","html-keyboard-response","132","2.0.0","201941","p3awyfzqtp5","eagle","<p>ink</p>","null","","",""
"","null","html-keyboard-response","133","2.0.0","202943","p3awyfzqtp5","eagle","<div style=""font-size:60px;"">+</div>","null","","",""
"","null","html-keyboard-response","134","2.0.0","204446","p3awyfzqtp5","eagle","<p>night</p>","null","","",""
"","null","html-keyboard-response","135","2.0.0","205448","p3awyfzqtp5","eagle","<div style=""font-size:60px;"">+</div>","null","","",""
"","null","html-keyboard-response","136","2.0.0","206950","p3awyfzqtp5","eagle","<p>white</p>","null","","",""
"","null","html-keyboard-response","137","2.0.0","207952","p3awyfzqtp5","eagle","<div style=""font-size:60px;"">+</div>","null","","",""
"","null","html-keyboard-response","138","2.0.0","209455","p3awyfzqtp5","eagle","<p>death</p>","null","","",""
"","null","html-keyboard-response","139","2.0.0","210458","p3awyfzqtp5","eagle","<div style=""font-size:60px;"">+</div>","null","","",""
"","null","html-keyboard-response","140","2.0.0","211961","p3awyfzqtp5","eagle","<p>cat</p>","null","","",""
"","null","html-keyboard-response","141","2.0.0","212963","p3awyfzqtp5","eagle","<div style=""font-size:60px;"">+</div>","null","","",""
"","null","html-keyboard-response","142","2.0.0","214467","p3awyfzqtp5","eagle","<p>dark</p>","null","","",""
"","null","html-keyboard-response","143","2.0.0","215470","p3awyfzqtp5","eagle","<div style=""font-size:60px;"">+</div>","null","","",""
"","null","html-keyboard-response","144","2.0.0","216974","p3awyfzqtp5","eagle","<p>bottom</p>","null","","",""
"","null","html-keyboard-response","145","2.0.0","217977","p3awyfzqtp5","eagle","<div style=""font-size:60px;"">+</div>","null","","",""
"","null","html-keyboard-response","146","2.0.0","219479","p3awyfzqtp5","eagle","<p>charred</p>","null","","",""
"","null","html-keyboard-response","147","2.0.0","220482","p3awyfzqtp5","eagle","<div style=""font-size:60px;"">+</div>","null","","",""
"","null","html-keyboard-response","148","2.0.0","221984","p3awyfzqtp5","eagle","<p>grief</p>","null","","",""
"","null","html-keyboard-response","149","2.0.0","222987","p3awyfzqtp5","eagle","<div style=""font-size:60px;"">+</div>","null","","",""
"","null","html-keyboard-response","150","2.0.0","224490","p3awyfzqtp5","eagle","<p>color</p>","null","","",""
"","null","html-keyboard-response","151","2.0.0","225493","p3awyfzqtp5","eagle","<div style=""font-size:60px;"">+</div>","null","","",""
"","null","html-keyboard-response","152","2.0.0","226995","p3awyfzqtp5","eagle","<p>blue</p>","null","","",""
"","44556","html-keyboard-response","153","2.0.0","271553","p3awyfzqtp5","eagle","Now you will rate your confidence that each word occurred on the list. <p>Please indicate whether you think the word was definitely new, probably new, probably old, or definitely old.</p> <p>Press any key to continue.</P>","ArrowRight","","",""
"","7214","survey-likert","154","null","278777","p3awyfzqtp5","eagle","","{""Q0"":3}","anger","recognition","[0]"
"","2890","survey-likert","155","null","281673","p3awyfzqtp5","eagle","","{""Q0"":0}","attention","recognition","[0]"
"","3598","survey-likert","156","null","285274","p3awyfzqtp5","eagle","","{""Q0"":2}","charred","recognition","[0]"
"","2645","survey-likert","157","null","287922","p3awyfzqtp5","eagle","","{""Q0"":3}","recliner","recognition","[0]"
"","2849","survey-likert","158","null","290772","p3awyfzqtp5","eagle","","{""Q0"":1}","balance","recognition","[0]"
"","3416","survey-likert","159","null","294190","p3awyfzqtp5","eagle","","{""Q0"":1}","oven","recognition","[0]"
"","3697","survey-likert","160","null","297889","p3awyfzqtp5","eagle","","{""Q0"":1}","shade","recognition","[0]"
"","1863","survey-likert","161","null","299756","p3awyfzqtp5","eagle","","{""Q0"":1}","black","recognition","[0]"
"","2065","survey-likert","162","null","301822","p3awyfzqtp5","eagle","","{""Q0"":0}","balloon","recognition","[0]"
"","2282","survey-likert","163","null","304105","p3awyfzqtp5","eagle","","{""Q0"":0}","void","recognition","[0]"
"","1814","survey-likert","164","null","305921","p3awyfzqtp5","eagle","","{""Q0"":1}","dark","recognition","[0]"
"","1850","survey-likert","165","null","307773","p3awyfzqtp5","eagle","","{""Q0"":1}","jelly","recognition","[0]"
"","2713","survey-likert","166","null","310487","p3awyfzqtp5","eagle","","{""Q0"":0}","elephant","recognition","[0]"
"","5749","survey-likert","167","null","316239","p3awyfzqtp5","eagle","","{""Q0"":1}","doctor","recognition","[0]"
"","2680","survey-likert","168","null","318920","p3awyfzqtp5","eagle","","{""Q0"":1}","frame","recognition","[0]"
"","2816","survey-likert","169","null","321738","p3awyfzqtp5","eagle","","{""Q0"":2}","ice","recognition","[0]"
"","4216","survey-likert","170","null","325955","p3awyfzqtp5","eagle","","{""Q0"":1}","procedure","recognition","[0]"
"","2898","survey-likert","171","null","328855","p3awyfzqtp5","eagle","","{""Q0"":2}","clock","recognition","[0]"
"","2631","survey-likert","172","null","331488","p3awyfzqtp5","eagle","","{""Q0"":2}","bread","recognition","[0]"
"","2196","survey-likert","173","null","333686","p3awyfzqtp5","eagle","","{""Q0"":3}","ill","recognition","[0]"
"","1835","survey-likert","174","null","335522","p3awyfzqtp5","eagle","","{""Q0"":1}","basket","recognition","[0]"
"","5665","survey-likert","175","null","341189","p3awyfzqtp5","eagle","","{""Q0"":1}","guitar","recognition","[0]"
"","2981","survey-likert","176","null","344172","p3awyfzqtp5","eagle","","{""Q0"":3}","rye","recognition","[0]"
"","2999","survey-likert","177","null","347172","p3awyfzqtp5","eagle","","{""Q0"":1}","laptop","recognition","[0]"
"","3531","survey-likert","178","null","350706","p3awyfzqtp5","eagle","","{""Q0"":2}","seat","recognition","[0]"
"","1964","survey-likert","179","null","352672","p3awyfzqtp5","eagle","","{""Q0"":3}","hatred","recognition","[0]"
"","5014","survey-likert","180","null","357688","p3awyfzqtp5","eagle","","{""Q0"":2}","window","recognition","[0]"
"","5532","survey-likert","181","null","363222","p3awyfzqtp5","eagle","","{""Q0"":1}","drift","recognition","[0]"
"","1830","survey-likert","182","null","365055","p3awyfzqtp5","eagle","","{""Q0"":2}","temper","recognition","[0]"
"","2098","survey-likert","183","null","367155","p3awyfzqtp5","eagle","","{""Q0"":2}","cold","recognition","[0]"
"","1897","survey-likert","184","null","369055","p3awyfzqtp5","eagle","","{""Q0"":0}","lighthouse","recognition","[0]"
"","2730","survey-likert","185","null","371787","p3awyfzqtp5","eagle","","{""Q0"":2}","curtain","recognition","[0]"
"","2165","survey-likert","186","null","373954","p3awyfzqtp5","eagle","","{""Q0"":1}","chilly","recognition","[0]"
"","1714","survey-likert","187","null","375670","p3awyfzqtp5","eagle","","{""Q0"":1}","conflict","recognition","[0]"
"","3166","survey-likert","188","null","378838","p3awyfzqtp5","eagle","","{""Q0"":2}","mountain","recognition","[0]"
"","1615","survey-likert","189","null","380454","p3awyfzqtp5","eagle","","{""Q0"":1}","book","recognition","[0]"
"","1899","survey-likert","190","null","382355","p3awyfzqtp5","eagle","","{""Q0"":1}","river","recognition","[0]"
"","1713","survey-likert","191","null","384070","p3awyfzqtp5","eagle","","{""Q0"":1}","noise","recognition","[0]"
"","2549","survey-likert","192","null","386620","p3awyfzqtp5","eagle","","{""Q0"":3}","chair","recognition","[0]"
"","1782","survey-likert","193","null","388404","p3awyfzqtp5","eagle","","{""Q0"":1}","camera","recognition","[0]"
"","6380","survey-likert","194","null","394785","p3awyfzqtp5","eagle","","{""Q0"":2}","sick","recognition","[0]"
"","2134","survey-likert","195","null","396920","p3awyfzqtp5","eagle","","{""Q0"":1}","planet","recognition","[0]"
"","51281","survey-text","196","2.0.0","448229","p3awyfzqtp5","eagle","","{""age"":""21"",""gender"":""female"",""Q2"":""Memory test to see if seeing a word/being asked about it will make it more likely for false recall."",""Q3"":""No""}","","",""
