"success","rt","trial_type","trial_index","plugin_version","time_elapsed","random_id","participant","stimulus","response","word","type","question_order"
"true","1169","fullscreen","0","null","2187","p61ookep616","gorilla","","","","",""
"","10078","html-keyboard-response","1","2.0.0","12268","p61ookep616","gorilla","Welcome to the Fasle Recall Experiment.<p>You will see and listen to 6 lists of 12-words one at a time. Try to remember as many as you can.</p><p>After the list, you’ll be asked to complete a recognition test.</p><p>Press any key to begin.</p>"," ","","",""
"","5838","survey-text","2","2.0.0","18116","p61ookep616","gorilla","","{""participant_id"":""gorilla""}","","",""
"","null","html-keyboard-response","3","2.0.0","20125","p61ookep616","gorilla","<h3>List 1 </h3>","null","","",""
"","null","html-keyboard-response","4","2.0.0","21140","p61ookep616","gorilla","<div style=""font-size:60px;"">+</div>","null","","",""
"","null","html-keyboard-response","5","2.0.0","22648","p61ookep616","gorilla","<p>white</p>","null","","",""
"","null","html-keyboard-response","6","2.0.0","23664","p61ookep616","gorilla","<div style=""font-size:60px;"">+</div>","null","","",""
"","null","html-keyboard-response","7","2.0.0","25178","p61ookep616","gorilla","<p>charred</p>","null","","",""
"","null","html-keyboard-response","8","2.0.0","26195","p61ookep616","gorilla","<div style=""font-size:60px;"">+</div>","null","","",""
"","null","html-keyboard-response","9","2.0.0","27697","p61ookep616","gorilla","<p>bottom</p>","null","","",""
"","null","html-keyboard-response","10","2.0.0","28701","p61ookep616","gorilla","<div style=""font-size:60px;"">+</div>","null","","",""
"","null","html-keyboard-response","11","2.0.0","30209","p61ookep616","gorilla","<p>death</p>","null","","",""
"","null","html-keyboard-response","12","2.0.0","31218","p61ookep616","gorilla","<div style=""font-size:60px;"">+</div>","null","","",""
"","null","html-keyboard-response","13","2.0.0","32721","p61ookep616","gorilla","<p>cat</p>","null","","",""
"","null","html-keyboard-response","14","2.0.0","33723","p61ookep616","gorilla","<div style=""font-size:60px;"">+</div>","null","","",""
"","null","html-keyboard-response","15","2.0.0","35233","p61ookep616","gorilla","<p>grief</p>","null","","",""
"","null","html-keyboard-response","16","2.0.0","36242","p61ookep616","gorilla","<div style=""font-size:60px;"">+</div>","null","","",""
"","null","html-keyboard-response","17","2.0.0","37750","p61ookep616","gorilla","<p>color</p>","null","","",""
"","null","html-keyboard-response","18","2.0.0","38765","p61ookep616","gorilla","<div style=""font-size:60px;"">+</div>","null","","",""
"","null","html-keyboard-response","19","2.0.0","40278","p61ookep616","gorilla","<p>funeral</p>","null","","",""
"","null","html-keyboard-response","20","2.0.0","41293","p61ookep616","gorilla","<div style=""font-size:60px;"">+</div>","null","","",""
"","null","html-keyboard-response","21","2.0.0","42798","p61ookep616","gorilla","<p>ink</p>","null","","",""
"","null","html-keyboard-response","22","2.0.0","43814","p61ookep616","gorilla","<div style=""font-size:60px;"">+</div>","null","","",""
"","null","html-keyboard-response","23","2.0.0","45331","p61ookep616","gorilla","<p>blue</p>","null","","",""
"","null","html-keyboard-response","24","2.0.0","46346","p61ookep616","gorilla","<div style=""font-size:60px;"">+</div>","null","","",""
"","null","html-keyboard-response","25","2.0.0","47856","p61ookep616","gorilla","<p>night</p>","null","","",""
"","null","html-keyboard-response","26","2.0.0","48871","p61ookep616","gorilla","<div style=""font-size:60px;"">+</div>","null","","",""
"","null","html-keyboard-response","27","2.0.0","50378","p61ookep616","gorilla","<p>dark</p>","null","","",""
"","null","html-keyboard-response","28","2.0.0","52385","p61ookep616","gorilla","<h3>List 2 </h3>","null","","",""
"","null","html-keyboard-response","29","2.0.0","53400","p61ookep616","gorilla","<div style=""font-size:60px;"">+</div>","null","","",""
"","null","html-keyboard-response","30","2.0.0","54910","p61ookep616","gorilla","<p>frigid</p>","null","","",""
"","null","html-keyboard-response","31","2.0.0","55915","p61ookep616","gorilla","<div style=""font-size:60px;"">+</div>","null","","",""
"","null","html-keyboard-response","32","2.0.0","57429","p61ookep616","gorilla","<p>heat</p>","null","","",""
"","null","html-keyboard-response","33","2.0.0","58446","p61ookep616","gorilla","<div style=""font-size:60px;"">+</div>","null","","",""
"","null","html-keyboard-response","34","2.0.0","59953","p61ookep616","gorilla","<p>air</p>","null","","",""
"","null","html-keyboard-response","35","2.0.0","60956","p61ookep616","gorilla","<div style=""font-size:60px;"">+</div>","null","","",""
"","null","html-keyboard-response","36","2.0.0","62462","p61ookep616","gorilla","<p>warm</p>","null","","",""
"","null","html-keyboard-response","37","2.0.0","63464","p61ookep616","gorilla","<div style=""font-size:60px;"">+</div>","null","","",""
"","null","html-keyboard-response","38","2.0.0","64970","p61ookep616","gorilla","<p>winter</p>","null","","",""
"","null","html-keyboard-response","39","2.0.0","65976","p61ookep616","gorilla","<div style=""font-size:60px;"">+</div>","null","","",""
"","null","html-keyboard-response","40","2.0.0","67483","p61ookep616","gorilla","<p>weather</p>","null","","",""
"","null","html-keyboard-response","41","2.0.0","68490","p61ookep616","gorilla","<div style=""font-size:60px;"">+</div>","null","","",""
"","null","html-keyboard-response","42","2.0.0","69995","p61ookep616","gorilla","<p>hot</p>","null","","",""
"","null","html-keyboard-response","43","2.0.0","71009","p61ookep616","gorilla","<div style=""font-size:60px;"">+</div>","null","","",""
"","null","html-keyboard-response","44","2.0.0","72517","p61ookep616","gorilla","<p>chilly</p>","null","","",""
"","null","html-keyboard-response","45","2.0.0","73534","p61ookep616","gorilla","<div style=""font-size:60px;"">+</div>","null","","",""
"","null","html-keyboard-response","46","2.0.0","75039","p61ookep616","gorilla","<p>snow</p>","null","","",""
"","null","html-keyboard-response","47","2.0.0","76054","p61ookep616","gorilla","<div style=""font-size:60px;"">+</div>","null","","",""
"","null","html-keyboard-response","48","2.0.0","77566","p61ookep616","gorilla","<p>ice</p>","null","","",""
"","null","html-keyboard-response","49","2.0.0","78581","p61ookep616","gorilla","<div style=""font-size:60px;"">+</div>","null","","",""
"","null","html-keyboard-response","50","2.0.0","80090","p61ookep616","gorilla","<p>wet</p>","null","","",""
"","null","html-keyboard-response","51","2.0.0","81105","p61ookep616","gorilla","<div style=""font-size:60px;"">+</div>","null","","",""
"","null","html-keyboard-response","52","2.0.0","82608","p61ookep616","gorilla","<p>freeze</p>","null","","",""
"","null","html-keyboard-response","53","2.0.0","84617","p61ookep616","gorilla","<h3>List 3 </h3>","null","","",""
"","null","html-keyboard-response","54","2.0.0","85628","p61ookep616","gorilla","<div style=""font-size:60px;"">+</div>","null","","",""
"","null","html-keyboard-response","55","2.0.0","87135","p61ookep616","gorilla","<p>eat</p>","null","","",""
"","null","html-keyboard-response","56","2.0.0","88147","p61ookep616","gorilla","<div style=""font-size:60px;"">+</div>","null","","",""
"","null","html-keyboard-response","57","2.0.0","89653","p61ookep616","gorilla","<p>rye</p>","null","","",""
"","null","html-keyboard-response","58","2.0.0","90667","p61ookep616","gorilla","<div style=""font-size:60px;"">+</div>","null","","",""
"","null","html-keyboard-response","59","2.0.0","92185","p61ookep616","gorilla","<p>crust</p>","null","","",""
"","null","html-keyboard-response","60","2.0.0","93202","p61ookep616","gorilla","<div style=""font-size:60px;"">+</div>","null","","",""
"","null","html-keyboard-response","61","2.0.0","94715","p61ookep616","gorilla","<p>slice</p>","null","","",""
"","null","html-keyboard-response","62","2.0.0","95718","p61ookep616","gorilla","<div style=""font-size:60px;"">+</div>","null","","",""
"","null","html-keyboard-response","63","2.0.0","97222","p61ookep616","gorilla","<p>food</p>","null","","",""
"","null","html-keyboard-response","64","2.0.0","98238","p61ookep616","gorilla","<div style=""font-size:60px;"">+</div>","null","","",""
"","null","html-keyboard-response","65","2.0.0","99743","p61ookep616","gorilla","<p>flour</p>","null","","",""
"","null","html-keyboard-response","66","2.0.0","100760","p61ookep616","gorilla","<div style=""font-size:60px;"">+</div>","null","","",""
"","null","html-keyboard-response","67","2.0.0","102269","p61ookep616","gorilla","<p>sandwich</p>","null","","",""
"","null","html-keyboard-response","68","2.0.0","103280","p61ookep616","gorilla","<div style=""font-size:60px;"">+</div>","null","","",""
"","null","html-keyboard-response","69","2.0.0","104783","p61ookep616","gorilla","<p>dough</p>","null","","",""
"","null","html-keyboard-response","70","2.0.0","105798","p61ookep616","gorilla","<div style=""font-size:60px;"">+</div>","null","","",""
"","null","html-keyboard-response","71","2.0.0","107305","p61ookep616","gorilla","<p>jelly</p>","null","","",""
"","null","html-keyboard-response","72","2.0.0","108309","p61ookep616","gorilla","<div style=""font-size:60px;"">+</div>","null","","",""
"","null","html-keyboard-response","73","2.0.0","109825","p61ookep616","gorilla","<p>milk</p>","null","","",""
"","null","html-keyboard-response","74","2.0.0","110832","p61ookep616","gorilla","<div style=""font-size:60px;"">+</div>","null","","",""
"","null","html-keyboard-response","75","2.0.0","112342","p61ookep616","gorilla","<p>butter</p>","null","","",""
"","null","html-keyboard-response","76","2.0.0","113351","p61ookep616","gorilla","<div style=""font-size:60px;"">+</div>","null","","",""
"","null","html-keyboard-response","77","2.0.0","114859","p61ookep616","gorilla","<p>jam</p>","null","","",""
"","null","html-keyboard-response","78","2.0.0","116868","p61ookep616","gorilla","<h3>List 4 </h3>","null","","",""
"","null","html-keyboard-response","79","2.0.0","117871","p61ookep616","gorilla","<div style=""font-size:60px;"">+</div>","null","","",""
"","null","html-keyboard-response","80","2.0.0","119380","p61ookep616","gorilla","<p>table</p>","null","","",""
"","null","html-keyboard-response","81","2.0.0","120398","p61ookep616","gorilla","<div style=""font-size:60px;"">+</div>","null","","",""
"","null","html-keyboard-response","82","2.0.0","121910","p61ookep616","gorilla","<p>stool</p>","null","","",""
"","null","html-keyboard-response","83","2.0.0","122920","p61ookep616","gorilla","<div style=""font-size:60px;"">+</div>","null","","",""
"","null","html-keyboard-response","84","2.0.0","124429","p61ookep616","gorilla","<p>desk</p>","null","","",""
"","null","html-keyboard-response","85","2.0.0","125437","p61ookep616","gorilla","<div style=""font-size:60px;"">+</div>","null","","",""
"","null","html-keyboard-response","86","2.0.0","126952","p61ookep616","gorilla","<p>sit</p>","null","","",""
"","null","html-keyboard-response","87","2.0.0","127969","p61ookep616","gorilla","<div style=""font-size:60px;"">+</div>","null","","",""
"","null","html-keyboard-response","88","2.0.0","129473","p61ookep616","gorilla","<p>couch</p>","null","","",""
"","null","html-keyboard-response","89","2.0.0","130486","p61ookep616","gorilla","<div style=""font-size:60px;"">+</div>","null","","",""
"","null","html-keyboard-response","90","2.0.0","131994","p61ookep616","gorilla","<p>seat</p>","null","","",""
"","null","html-keyboard-response","91","2.0.0","133005","p61ookep616","gorilla","<div style=""font-size:60px;"">+</div>","null","","",""
"","null","html-keyboard-response","92","2.0.0","134515","p61ookep616","gorilla","<p>recliner</p>","null","","",""
"","null","html-keyboard-response","93","2.0.0","135528","p61ookep616","gorilla","<div style=""font-size:60px;"">+</div>","null","","",""
"","null","html-keyboard-response","94","2.0.0","137036","p61ookep616","gorilla","<p>swivel</p>","null","","",""
"","null","html-keyboard-response","95","2.0.0","138052","p61ookep616","gorilla","<div style=""font-size:60px;"">+</div>","null","","",""
"","null","html-keyboard-response","96","2.0.0","139561","p61ookep616","gorilla","<p>wood</p>","null","","",""
"","null","html-keyboard-response","97","2.0.0","140576","p61ookep616","gorilla","<div style=""font-size:60px;"">+</div>","null","","",""
"","null","html-keyboard-response","98","2.0.0","142087","p61ookep616","gorilla","<p>sofa</p>","null","","",""
"","null","html-keyboard-response","99","2.0.0","143094","p61ookep616","gorilla","<div style=""font-size:60px;"">+</div>","null","","",""
"","null","html-keyboard-response","100","2.0.0","144605","p61ookep616","gorilla","<p>legs</p>","null","","",""
"","null","html-keyboard-response","101","2.0.0","145621","p61ookep616","gorilla","<div style=""font-size:60px;"">+</div>","null","","",""
"","null","html-keyboard-response","102","2.0.0","147130","p61ookep616","gorilla","<p>cushion</p>","null","","",""
"","null","html-keyboard-response","103","2.0.0","149138","p61ookep616","gorilla","<h3>List 5 </h3>","null","","",""
"","null","html-keyboard-response","104","2.0.0","150142","p61ookep616","gorilla","<div style=""font-size:60px;"">+</div>","null","","",""
"","null","html-keyboard-response","105","2.0.0","151651","p61ookep616","gorilla","<p>hate</p>","null","","",""
"","null","html-keyboard-response","106","2.0.0","152667","p61ookep616","gorilla","<div style=""font-size:60px;"">+</div>","null","","",""
"","null","html-keyboard-response","107","2.0.0","154179","p61ookep616","gorilla","<p>fear</p>","null","","",""
"","null","html-keyboard-response","108","2.0.0","155183","p61ookep616","gorilla","<div style=""font-size:60px;"">+</div>","null","","",""
"","null","html-keyboard-response","109","2.0.0","156694","p61ookep616","gorilla","<p>mean</p>","null","","",""
"","null","html-keyboard-response","110","2.0.0","157708","p61ookep616","gorilla","<div style=""font-size:60px;"">+</div>","null","","",""
"","null","html-keyboard-response","111","2.0.0","159212","p61ookep616","gorilla","<p>fight</p>","null","","",""
"","null","html-keyboard-response","112","2.0.0","160219","p61ookep616","gorilla","<div style=""font-size:60px;"">+</div>","null","","",""
"","null","html-keyboard-response","113","2.0.0","161735","p61ookep616","gorilla","<p>ire</p>","null","","",""
"","null","html-keyboard-response","114","2.0.0","162742","p61ookep616","gorilla","<div style=""font-size:60px;"">+</div>","null","","",""
"","null","html-keyboard-response","115","2.0.0","164253","p61ookep616","gorilla","<p>mad</p>","null","","",""
"","null","html-keyboard-response","116","2.0.0","165268","p61ookep616","gorilla","<div style=""font-size:60px;"">+</div>","null","","",""
"","null","html-keyboard-response","117","2.0.0","166783","p61ookep616","gorilla","<p>happy</p>","null","","",""
"","null","html-keyboard-response","118","2.0.0","167798","p61ookep616","gorilla","<div style=""font-size:60px;"">+</div>","null","","",""
"","null","html-keyboard-response","119","2.0.0","169308","p61ookep616","gorilla","<p>hatred</p>","null","","",""
"","null","html-keyboard-response","120","2.0.0","170311","p61ookep616","gorilla","<div style=""font-size:60px;"">+</div>","null","","",""
"","null","html-keyboard-response","121","2.0.0","171829","p61ookep616","gorilla","<p>temper</p>","null","","",""
"","null","html-keyboard-response","122","2.0.0","172846","p61ookep616","gorilla","<div style=""font-size:60px;"">+</div>","null","","",""
"","null","html-keyboard-response","123","2.0.0","174355","p61ookep616","gorilla","<p>fury</p>","null","","",""
"","null","html-keyboard-response","124","2.0.0","175362","p61ookep616","gorilla","<div style=""font-size:60px;"">+</div>","null","","",""
"","null","html-keyboard-response","125","2.0.0","176870","p61ookep616","gorilla","<p>wrath</p>","null","","",""
"","null","html-keyboard-response","126","2.0.0","177884","p61ookep616","gorilla","<div style=""font-size:60px;"">+</div>","null","","",""
"","null","html-keyboard-response","127","2.0.0","179391","p61ookep616","gorilla","<p>rage</p>","null","","",""
"","null","html-keyboard-response","128","2.0.0","181397","p61ookep616","gorilla","<h3>List 6 </h3>","null","","",""
"","null","html-keyboard-response","129","2.0.0","182401","p61ookep616","gorilla","<div style=""font-size:60px;"">+</div>","null","","",""
"","null","html-keyboard-response","130","2.0.0","183904","p61ookep616","gorilla","<p>ill</p>","null","","",""
"","null","html-keyboard-response","131","2.0.0","184921","p61ookep616","gorilla","<div style=""font-size:60px;"">+</div>","null","","",""
"","null","html-keyboard-response","132","2.0.0","186431","p61ookep616","gorilla","<p>hospital</p>","null","","",""
"","null","html-keyboard-response","133","2.0.0","187448","p61ookep616","gorilla","<div style=""font-size:60px;"">+</div>","null","","",""
"","null","html-keyboard-response","134","2.0.0","188953","p61ookep616","gorilla","<p>health</p>","null","","",""
"","null","html-keyboard-response","135","2.0.0","189966","p61ookep616","gorilla","<div style=""font-size:60px;"">+</div>","null","","",""
"","null","html-keyboard-response","136","2.0.0","191480","p61ookep616","gorilla","<p>patient</p>","null","","",""
"","null","html-keyboard-response","137","2.0.0","192494","p61ookep616","gorilla","<div style=""font-size:60px;"">+</div>","null","","",""
"","null","html-keyboard-response","138","2.0.0","194004","p61ookep616","gorilla","<p>medicine</p>","null","","",""
"","null","html-keyboard-response","139","2.0.0","195015","p61ookep616","gorilla","<div style=""font-size:60px;"">+</div>","null","","",""
"","null","html-keyboard-response","140","2.0.0","196526","p61ookep616","gorilla","<p>physician</p>","null","","",""
"","null","html-keyboard-response","141","2.0.0","197531","p61ookep616","gorilla","<div style=""font-size:60px;"">+</div>","null","","",""
"","null","html-keyboard-response","142","2.0.0","199037","p61ookep616","gorilla","<p>stethoscope</p>","null","","",""
"","null","html-keyboard-response","143","2.0.0","200050","p61ookep616","gorilla","<div style=""font-size:60px;"">+</div>","null","","",""
"","null","html-keyboard-response","144","2.0.0","201556","p61ookep616","gorilla","<p>dentist</p>","null","","",""
"","null","html-keyboard-response","145","2.0.0","202559","p61ookep616","gorilla","<div style=""font-size:60px;"">+</div>","null","","",""
"","null","html-keyboard-response","146","2.0.0","204064","p61ookep616","gorilla","<p>lawyer</p>","null","","",""
"","null","html-keyboard-response","147","2.0.0","205074","p61ookep616","gorilla","<div style=""font-size:60px;"">+</div>","null","","",""
"","null","html-keyboard-response","148","2.0.0","206583","p61ookep616","gorilla","<p>office</p>","null","","",""
"","null","html-keyboard-response","149","2.0.0","207592","p61ookep616","gorilla","<div style=""font-size:60px;"">+</div>","null","","",""
"","null","html-keyboard-response","150","2.0.0","209102","p61ookep616","gorilla","<p>sick</p>","null","","",""
"","null","html-keyboard-response","151","2.0.0","210111","p61ookep616","gorilla","<div style=""font-size:60px;"">+</div>","null","","",""
"","null","html-keyboard-response","152","2.0.0","211620","p61ookep616","gorilla","<p>nurse</p>","null","","",""
"","7602","html-keyboard-response","153","2.0.0","219225","p61ookep616","gorilla","Now you will rate your confidence that each word occurred on the list. <p>Please indicate whether you think the word was definitely new, probably new, probably old, or definitely old.</p> <p>Press any key to continue.</P>"," ","","",""
"","12373","survey-likert","154","null","231602","p61ookep616","gorilla","","{""Q0"":0}","book","recognition","[0]"
"","3680","survey-likert","155","null","235286","p61ookep616","gorilla","","{""Q0"":0}","basket","recognition","[0]"
"","5324","survey-likert","156","null","240612","p61ookep616","gorilla","","{""Q0"":3}","rye","recognition","[0]"
"","7333","survey-likert","157","null","247949","p61ookep616","gorilla","","{""Q0"":0}","bread","recognition","[0]"
"","3264","survey-likert","158","null","251217","p61ookep616","gorilla","","{""Q0"":0}","planet","recognition","[0]"
"","3138","survey-likert","159","null","254359","p61ookep616","gorilla","","{""Q0"":3}","chair","recognition","[0]"
"","3486","survey-likert","160","null","257848","p61ookep616","gorilla","","{""Q0"":0}","elephant","recognition","[0]"
"","9062","survey-likert","161","null","266913","p61ookep616","gorilla","","{""Q0"":2}","blue","recognition","[0]"
"","3872","survey-likert","162","null","270788","p61ookep616","gorilla","","{""Q0"":0}","void","recognition","[0]"
"","2542","survey-likert","163","null","273333","p61ookep616","gorilla","","{""Q0"":0}","frame","recognition","[0]"
"","3247","survey-likert","164","null","276584","p61ookep616","gorilla","","{""Q0"":3}","couch","recognition","[0]"
"","7108","survey-likert","165","null","283697","p61ookep616","gorilla","","{""Q0"":0}","conflict","recognition","[0]"
"","7458","survey-likert","166","null","291159","p61ookep616","gorilla","","{""Q0"":0}","chilly","recognition","[0]"
"","3414","survey-likert","167","null","294576","p61ookep616","gorilla","","{""Q0"":0}","oven","recognition","[0]"
"","2348","survey-likert","168","null","296929","p61ookep616","gorilla","","{""Q0"":0}","balloon","recognition","[0]"
"","8002","survey-likert","169","null","304933","p61ookep616","gorilla","","{""Q0"":0}","anger","recognition","[0]"
"","2573","survey-likert","170","null","307510","p61ookep616","gorilla","","{""Q0"":0}","noise","recognition","[0]"
"","3536","survey-likert","171","null","311049","p61ookep616","gorilla","","{""Q0"":0}","mountain","recognition","[0]"
"","3361","survey-likert","172","null","314412","p61ookep616","gorilla","","{""Q0"":0}","attention","recognition","[0]"
"","3582","survey-likert","173","null","317996","p61ookep616","gorilla","","{""Q0"":0}","lighthouse","recognition","[0]"
"","2336","survey-likert","174","null","320335","p61ookep616","gorilla","","{""Q0"":0}","curtain","recognition","[0]"
"","4377","survey-likert","175","null","324717","p61ookep616","gorilla","","{""Q0"":0}","cold","recognition","[0]"
"","3516","survey-likert","176","null","328236","p61ookep616","gorilla","","{""Q0"":1}","wood","recognition","[0]"
"","3574","survey-likert","177","null","331813","p61ookep616","gorilla","","{""Q0"":3}","dentist","recognition","[0]"
"","3274","survey-likert","178","null","335089","p61ookep616","gorilla","","{""Q0"":0}","drift","recognition","[0]"
"","4579","survey-likert","179","null","339671","p61ookep616","gorilla","","{""Q0"":3}","dark","recognition","[0]"
"","5288","survey-likert","180","null","344961","p61ookep616","gorilla","","{""Q0"":0}","camera","recognition","[0]"
"","2777","survey-likert","181","null","347740","p61ookep616","gorilla","","{""Q0"":0}","laptop","recognition","[0]"
"","4689","survey-likert","182","null","352431","p61ookep616","gorilla","","{""Q0"":1}","black","recognition","[0]"
"","3611","survey-likert","183","null","356046","p61ookep616","gorilla","","{""Q0"":0}","procedure","recognition","[0]"
"","3022","survey-likert","184","null","359071","p61ookep616","gorilla","","{""Q0"":0}","river","recognition","[0]"
"","3542","survey-likert","185","null","362616","p61ookep616","gorilla","","{""Q0"":2}","window","recognition","[0]"
"","3420","survey-likert","186","null","366039","p61ookep616","gorilla","","{""Q0"":0}","balance","recognition","[0]"
"","3842","survey-likert","187","null","369885","p61ookep616","gorilla","","{""Q0"":1}","clock","recognition","[0]"
"","3903","survey-likert","188","null","373791","p61ookep616","gorilla","","{""Q0"":3}","physician","recognition","[0]"
"","4766","survey-likert","189","null","378562","p61ookep616","gorilla","","{""Q0"":2}","hatred","recognition","[0]"
"","3619","survey-likert","190","null","382184","p61ookep616","gorilla","","{""Q0"":3}","weather","recognition","[0]"
"","2919","survey-likert","191","null","385105","p61ookep616","gorilla","","{""Q0"":1}","guitar","recognition","[0]"
"","6346","survey-likert","192","null","391453","p61ookep616","gorilla","","{""Q0"":3}","doctor","recognition","[0]"
"","3727","survey-likert","193","null","395184","p61ookep616","gorilla","","{""Q0"":3}","food","recognition","[0]"
"","2457","survey-likert","194","null","397644","p61ookep616","gorilla","","{""Q0"":3}","fight","recognition","[0]"
"","4551","survey-likert","195","null","402196","p61ookep616","gorilla","","{""Q0"":1}","shade","recognition","[0]"
"","30558","survey-text","196","2.0.0","432767","p61ookep616","gorilla","","{""age"":""20"",""gender"":""Female"",""Q2"":""To test whether broad concepts affect people's memory of what words are recalled"",""Q3"":""No""}","","",""
