"success","rt","trial_type","trial_index","plugin_version","time_elapsed","random_id","participant","stimulus","response","word","type","question_order"
"true","2605","fullscreen","0","null","3613","pb25qkhc1hd","turtle","","","","",""
"","15877","html-keyboard-response","1","2.0.0","19494","pb25qkhc1hd","turtle","Welcome to the Fasle Recall Experiment.<p>You will see and listen to 6 lists of 12-words one at a time. Try to remember as many as you can.</p><p>After the list, you’ll be asked to complete a recognition test.</p><p>Press any key to begin.</p>"," ","","",""
"","4676","survey-text","2","2.0.0","24177","pb25qkhc1hd","turtle","","{""participant_id"":""turtle""}","","",""
"","null","html-keyboard-response","3","2.0.0","26181","pb25qkhc1hd","turtle","<h3>List 1 </h3>","null","","",""
"","null","html-keyboard-response","4","2.0.0","27184","pb25qkhc1hd","turtle","<div style=""font-size:60px;"">+</div>","null","","",""
"","null","html-keyboard-response","5","2.0.0","28689","pb25qkhc1hd","turtle","<p>dark</p>","null","","",""
"","null","html-keyboard-response","6","2.0.0","29697","pb25qkhc1hd","turtle","<div style=""font-size:60px;"">+</div>","null","","",""
"","null","html-keyboard-response","7","2.0.0","31204","pb25qkhc1hd","turtle","<p>white</p>","null","","",""
"","null","html-keyboard-response","8","2.0.0","32214","pb25qkhc1hd","turtle","<div style=""font-size:60px;"">+</div>","null","","",""
"","null","html-keyboard-response","9","2.0.0","33717","pb25qkhc1hd","turtle","<p>night</p>","null","","",""
"","null","html-keyboard-response","10","2.0.0","34725","pb25qkhc1hd","turtle","<div style=""font-size:60px;"">+</div>","null","","",""
"","null","html-keyboard-response","11","2.0.0","36231","pb25qkhc1hd","turtle","<p>bottom</p>","null","","",""
"","null","html-keyboard-response","12","2.0.0","37238","pb25qkhc1hd","turtle","<div style=""font-size:60px;"">+</div>","null","","",""
"","null","html-keyboard-response","13","2.0.0","38744","pb25qkhc1hd","turtle","<p>blue</p>","null","","",""
"","null","html-keyboard-response","14","2.0.0","39749","pb25qkhc1hd","turtle","<div style=""font-size:60px;"">+</div>","null","","",""
"","null","html-keyboard-response","15","2.0.0","41254","pb25qkhc1hd","turtle","<p>death</p>","null","","",""
"","null","html-keyboard-response","16","2.0.0","42258","pb25qkhc1hd","turtle","<div style=""font-size:60px;"">+</div>","null","","",""
"","null","html-keyboard-response","17","2.0.0","43764","pb25qkhc1hd","turtle","<p>cat</p>","null","","",""
"","null","html-keyboard-response","18","2.0.0","44769","pb25qkhc1hd","turtle","<div style=""font-size:60px;"">+</div>","null","","",""
"","null","html-keyboard-response","19","2.0.0","46276","pb25qkhc1hd","turtle","<p>charred</p>","null","","",""
"","null","html-keyboard-response","20","2.0.0","47280","pb25qkhc1hd","turtle","<div style=""font-size:60px;"">+</div>","null","","",""
"","null","html-keyboard-response","21","2.0.0","48783","pb25qkhc1hd","turtle","<p>ink</p>","null","","",""
"","null","html-keyboard-response","22","2.0.0","49790","pb25qkhc1hd","turtle","<div style=""font-size:60px;"">+</div>","null","","",""
"","null","html-keyboard-response","23","2.0.0","51296","pb25qkhc1hd","turtle","<p>grief</p>","null","","",""
"","null","html-keyboard-response","24","2.0.0","52304","pb25qkhc1hd","turtle","<div style=""font-size:60px;"">+</div>","null","","",""
"","null","html-keyboard-response","25","2.0.0","53810","pb25qkhc1hd","turtle","<p>funeral</p>","null","","",""
"","null","html-keyboard-response","26","2.0.0","54816","pb25qkhc1hd","turtle","<div style=""font-size:60px;"">+</div>","null","","",""
"","null","html-keyboard-response","27","2.0.0","56319","pb25qkhc1hd","turtle","<p>color</p>","null","","",""
"","null","html-keyboard-response","28","2.0.0","58322","pb25qkhc1hd","turtle","<h3>List 2 </h3>","null","","",""
"","null","html-keyboard-response","29","2.0.0","59329","pb25qkhc1hd","turtle","<div style=""font-size:60px;"">+</div>","null","","",""
"","null","html-keyboard-response","30","2.0.0","60836","pb25qkhc1hd","turtle","<p>fear</p>","null","","",""
"","null","html-keyboard-response","31","2.0.0","61839","pb25qkhc1hd","turtle","<div style=""font-size:60px;"">+</div>","null","","",""
"","null","html-keyboard-response","32","2.0.0","63344","pb25qkhc1hd","turtle","<p>fury</p>","null","","",""
"","null","html-keyboard-response","33","2.0.0","64348","pb25qkhc1hd","turtle","<div style=""font-size:60px;"">+</div>","null","","",""
"","null","html-keyboard-response","34","2.0.0","65855","pb25qkhc1hd","turtle","<p>temper</p>","null","","",""
"","null","html-keyboard-response","35","2.0.0","66862","pb25qkhc1hd","turtle","<div style=""font-size:60px;"">+</div>","null","","",""
"","null","html-keyboard-response","36","2.0.0","68368","pb25qkhc1hd","turtle","<p>fight</p>","null","","",""
"","null","html-keyboard-response","37","2.0.0","69374","pb25qkhc1hd","turtle","<div style=""font-size:60px;"">+</div>","null","","",""
"","null","html-keyboard-response","38","2.0.0","70880","pb25qkhc1hd","turtle","<p>hate</p>","null","","",""
"","null","html-keyboard-response","39","2.0.0","71886","pb25qkhc1hd","turtle","<div style=""font-size:60px;"">+</div>","null","","",""
"","null","html-keyboard-response","40","2.0.0","73393","pb25qkhc1hd","turtle","<p>ire</p>","null","","",""
"","null","html-keyboard-response","41","2.0.0","74398","pb25qkhc1hd","turtle","<div style=""font-size:60px;"">+</div>","null","","",""
"","null","html-keyboard-response","42","2.0.0","75905","pb25qkhc1hd","turtle","<p>hatred</p>","null","","",""
"","null","html-keyboard-response","43","2.0.0","76910","pb25qkhc1hd","turtle","<div style=""font-size:60px;"">+</div>","null","","",""
"","null","html-keyboard-response","44","2.0.0","78416","pb25qkhc1hd","turtle","<p>mad</p>","null","","",""
"","null","html-keyboard-response","45","2.0.0","79421","pb25qkhc1hd","turtle","<div style=""font-size:60px;"">+</div>","null","","",""
"","null","html-keyboard-response","46","2.0.0","80927","pb25qkhc1hd","turtle","<p>wrath</p>","null","","",""
"","null","html-keyboard-response","47","2.0.0","81933","pb25qkhc1hd","turtle","<div style=""font-size:60px;"">+</div>","null","","",""
"","null","html-keyboard-response","48","2.0.0","83436","pb25qkhc1hd","turtle","<p>mean</p>","null","","",""
"","null","html-keyboard-response","49","2.0.0","84442","pb25qkhc1hd","turtle","<div style=""font-size:60px;"">+</div>","null","","",""
"","null","html-keyboard-response","50","2.0.0","85949","pb25qkhc1hd","turtle","<p>happy</p>","null","","",""
"","null","html-keyboard-response","51","2.0.0","86953","pb25qkhc1hd","turtle","<div style=""font-size:60px;"">+</div>","null","","",""
"","null","html-keyboard-response","52","2.0.0","88461","pb25qkhc1hd","turtle","<p>rage</p>","null","","",""
"","null","html-keyboard-response","53","2.0.0","90468","pb25qkhc1hd","turtle","<h3>List 3 </h3>","null","","",""
"","null","html-keyboard-response","54","2.0.0","91472","pb25qkhc1hd","turtle","<div style=""font-size:60px;"">+</div>","null","","",""
"","null","html-keyboard-response","55","2.0.0","92979","pb25qkhc1hd","turtle","<p>wood</p>","null","","",""
"","null","html-keyboard-response","56","2.0.0","93982","pb25qkhc1hd","turtle","<div style=""font-size:60px;"">+</div>","null","","",""
"","null","html-keyboard-response","57","2.0.0","95485","pb25qkhc1hd","turtle","<p>legs</p>","null","","",""
"","null","html-keyboard-response","58","2.0.0","96486","pb25qkhc1hd","turtle","<div style=""font-size:60px;"">+</div>","null","","",""
"","null","html-keyboard-response","59","2.0.0","97993","pb25qkhc1hd","turtle","<p>recliner</p>","null","","",""
"","null","html-keyboard-response","60","2.0.0","99000","pb25qkhc1hd","turtle","<div style=""font-size:60px;"">+</div>","null","","",""
"","null","html-keyboard-response","61","2.0.0","100503","pb25qkhc1hd","turtle","<p>sit</p>","null","","",""
"","null","html-keyboard-response","62","2.0.0","101510","pb25qkhc1hd","turtle","<div style=""font-size:60px;"">+</div>","null","","",""
"","null","html-keyboard-response","63","2.0.0","103016","pb25qkhc1hd","turtle","<p>swivel</p>","null","","",""
"","null","html-keyboard-response","64","2.0.0","104022","pb25qkhc1hd","turtle","<div style=""font-size:60px;"">+</div>","null","","",""
"","null","html-keyboard-response","65","2.0.0","105528","pb25qkhc1hd","turtle","<p>sofa</p>","null","","",""
"","null","html-keyboard-response","66","2.0.0","106535","pb25qkhc1hd","turtle","<div style=""font-size:60px;"">+</div>","null","","",""
"","null","html-keyboard-response","67","2.0.0","108042","pb25qkhc1hd","turtle","<p>cushion</p>","null","","",""
"","null","html-keyboard-response","68","2.0.0","109049","pb25qkhc1hd","turtle","<div style=""font-size:60px;"">+</div>","null","","",""
"","null","html-keyboard-response","69","2.0.0","110553","pb25qkhc1hd","turtle","<p>couch</p>","null","","",""
"","null","html-keyboard-response","70","2.0.0","111560","pb25qkhc1hd","turtle","<div style=""font-size:60px;"">+</div>","null","","",""
"","null","html-keyboard-response","71","2.0.0","113066","pb25qkhc1hd","turtle","<p>desk</p>","null","","",""
"","null","html-keyboard-response","72","2.0.0","114070","pb25qkhc1hd","turtle","<div style=""font-size:60px;"">+</div>","null","","",""
"","null","html-keyboard-response","73","2.0.0","115577","pb25qkhc1hd","turtle","<p>stool</p>","null","","",""
"","null","html-keyboard-response","74","2.0.0","116581","pb25qkhc1hd","turtle","<div style=""font-size:60px;"">+</div>","null","","",""
"","null","html-keyboard-response","75","2.0.0","118088","pb25qkhc1hd","turtle","<p>table</p>","null","","",""
"","null","html-keyboard-response","76","2.0.0","119095","pb25qkhc1hd","turtle","<div style=""font-size:60px;"">+</div>","null","","",""
"","null","html-keyboard-response","77","2.0.0","120599","pb25qkhc1hd","turtle","<p>seat</p>","null","","",""
"","null","html-keyboard-response","78","2.0.0","122605","pb25qkhc1hd","turtle","<h3>List 4 </h3>","null","","",""
"","null","html-keyboard-response","79","2.0.0","123609","pb25qkhc1hd","turtle","<div style=""font-size:60px;"">+</div>","null","","",""
"","null","html-keyboard-response","80","2.0.0","125111","pb25qkhc1hd","turtle","<p>jam</p>","null","","",""
"","null","html-keyboard-response","81","2.0.0","126118","pb25qkhc1hd","turtle","<div style=""font-size:60px;"">+</div>","null","","",""
"","null","html-keyboard-response","82","2.0.0","127625","pb25qkhc1hd","turtle","<p>dough</p>","null","","",""
"","null","html-keyboard-response","83","2.0.0","128631","pb25qkhc1hd","turtle","<div style=""font-size:60px;"">+</div>","null","","",""
"","null","html-keyboard-response","84","2.0.0","130135","pb25qkhc1hd","turtle","<p>butter</p>","null","","",""
"","null","html-keyboard-response","85","2.0.0","131141","pb25qkhc1hd","turtle","<div style=""font-size:60px;"">+</div>","null","","",""
"","null","html-keyboard-response","86","2.0.0","132644","pb25qkhc1hd","turtle","<p>food</p>","null","","",""
"","null","html-keyboard-response","87","2.0.0","133648","pb25qkhc1hd","turtle","<div style=""font-size:60px;"">+</div>","null","","",""
"","null","html-keyboard-response","88","2.0.0","135154","pb25qkhc1hd","turtle","<p>sandwich</p>","null","","",""
"","null","html-keyboard-response","89","2.0.0","136159","pb25qkhc1hd","turtle","<div style=""font-size:60px;"">+</div>","null","","",""
"","null","html-keyboard-response","90","2.0.0","137666","pb25qkhc1hd","turtle","<p>flour</p>","null","","",""
"","null","html-keyboard-response","91","2.0.0","138673","pb25qkhc1hd","turtle","<div style=""font-size:60px;"">+</div>","null","","",""
"","null","html-keyboard-response","92","2.0.0","140179","pb25qkhc1hd","turtle","<p>milk</p>","null","","",""
"","null","html-keyboard-response","93","2.0.0","141186","pb25qkhc1hd","turtle","<div style=""font-size:60px;"">+</div>","null","","",""
"","null","html-keyboard-response","94","2.0.0","142692","pb25qkhc1hd","turtle","<p>crust</p>","null","","",""
"","null","html-keyboard-response","95","2.0.0","143698","pb25qkhc1hd","turtle","<div style=""font-size:60px;"">+</div>","null","","",""
"","null","html-keyboard-response","96","2.0.0","145210","pb25qkhc1hd","turtle","<p>eat</p>","null","","",""
"","null","html-keyboard-response","97","2.0.0","146230","pb25qkhc1hd","turtle","<div style=""font-size:60px;"">+</div>","null","","",""
"","null","html-keyboard-response","98","2.0.0","147737","pb25qkhc1hd","turtle","<p>slice</p>","null","","",""
"","null","html-keyboard-response","99","2.0.0","148743","pb25qkhc1hd","turtle","<div style=""font-size:60px;"">+</div>","null","","",""
"","null","html-keyboard-response","100","2.0.0","150248","pb25qkhc1hd","turtle","<p>jelly</p>","null","","",""
"","null","html-keyboard-response","101","2.0.0","151253","pb25qkhc1hd","turtle","<div style=""font-size:60px;"">+</div>","null","","",""
"","null","html-keyboard-response","102","2.0.0","152758","pb25qkhc1hd","turtle","<p>rye</p>","null","","",""
"","null","html-keyboard-response","103","2.0.0","154764","pb25qkhc1hd","turtle","<h3>List 5 </h3>","null","","",""
"","null","html-keyboard-response","104","2.0.0","155771","pb25qkhc1hd","turtle","<div style=""font-size:60px;"">+</div>","null","","",""
"","null","html-keyboard-response","105","2.0.0","157277","pb25qkhc1hd","turtle","<p>snow</p>","null","","",""
"","null","html-keyboard-response","106","2.0.0","158281","pb25qkhc1hd","turtle","<div style=""font-size:60px;"">+</div>","null","","",""
"","null","html-keyboard-response","107","2.0.0","159788","pb25qkhc1hd","turtle","<p>wet</p>","null","","",""
"","null","html-keyboard-response","108","2.0.0","160791","pb25qkhc1hd","turtle","<div style=""font-size:60px;"">+</div>","null","","",""
"","null","html-keyboard-response","109","2.0.0","162297","pb25qkhc1hd","turtle","<p>heat</p>","null","","",""
"","null","html-keyboard-response","110","2.0.0","163302","pb25qkhc1hd","turtle","<div style=""font-size:60px;"">+</div>","null","","",""
"","null","html-keyboard-response","111","2.0.0","164804","pb25qkhc1hd","turtle","<p>hot</p>","null","","",""
"","null","html-keyboard-response","112","2.0.0","165810","pb25qkhc1hd","turtle","<div style=""font-size:60px;"">+</div>","null","","",""
"","null","html-keyboard-response","113","2.0.0","167316","pb25qkhc1hd","turtle","<p>warm</p>","null","","",""
"","null","html-keyboard-response","114","2.0.0","168322","pb25qkhc1hd","turtle","<div style=""font-size:60px;"">+</div>","null","","",""
"","null","html-keyboard-response","115","2.0.0","169828","pb25qkhc1hd","turtle","<p>ice</p>","null","","",""
"","null","html-keyboard-response","116","2.0.0","170834","pb25qkhc1hd","turtle","<div style=""font-size:60px;"">+</div>","null","","",""
"","null","html-keyboard-response","117","2.0.0","172338","pb25qkhc1hd","turtle","<p>air</p>","null","","",""
"","null","html-keyboard-response","118","2.0.0","173342","pb25qkhc1hd","turtle","<div style=""font-size:60px;"">+</div>","null","","",""
"","null","html-keyboard-response","119","2.0.0","174846","pb25qkhc1hd","turtle","<p>weather</p>","null","","",""
"","null","html-keyboard-response","120","2.0.0","175849","pb25qkhc1hd","turtle","<div style=""font-size:60px;"">+</div>","null","","",""
"","null","html-keyboard-response","121","2.0.0","177355","pb25qkhc1hd","turtle","<p>freeze</p>","null","","",""
"","null","html-keyboard-response","122","2.0.0","178358","pb25qkhc1hd","turtle","<div style=""font-size:60px;"">+</div>","null","","",""
"","null","html-keyboard-response","123","2.0.0","179859","pb25qkhc1hd","turtle","<p>chilly</p>","null","","",""
"","null","html-keyboard-response","124","2.0.0","180864","pb25qkhc1hd","turtle","<div style=""font-size:60px;"">+</div>","null","","",""
"","null","html-keyboard-response","125","2.0.0","182367","pb25qkhc1hd","turtle","<p>winter</p>","null","","",""
"","null","html-keyboard-response","126","2.0.0","183374","pb25qkhc1hd","turtle","<div style=""font-size:60px;"">+</div>","null","","",""
"","null","html-keyboard-response","127","2.0.0","184880","pb25qkhc1hd","turtle","<p>frigid</p>","null","","",""
"","null","html-keyboard-response","128","2.0.0","186886","pb25qkhc1hd","turtle","<h3>List 6 </h3>","null","","",""
"","null","html-keyboard-response","129","2.0.0","187890","pb25qkhc1hd","turtle","<div style=""font-size:60px;"">+</div>","null","","",""
"","null","html-keyboard-response","130","2.0.0","189396","pb25qkhc1hd","turtle","<p>ill</p>","null","","",""
"","null","html-keyboard-response","131","2.0.0","190402","pb25qkhc1hd","turtle","<div style=""font-size:60px;"">+</div>","null","","",""
"","null","html-keyboard-response","132","2.0.0","191903","pb25qkhc1hd","turtle","<p>medicine</p>","null","","",""
"","null","html-keyboard-response","133","2.0.0","192908","pb25qkhc1hd","turtle","<div style=""font-size:60px;"">+</div>","null","","",""
"","null","html-keyboard-response","134","2.0.0","194415","pb25qkhc1hd","turtle","<p>patient</p>","null","","",""
"","null","html-keyboard-response","135","2.0.0","195422","pb25qkhc1hd","turtle","<div style=""font-size:60px;"">+</div>","null","","",""
"","null","html-keyboard-response","136","2.0.0","196929","pb25qkhc1hd","turtle","<p>lawyer</p>","null","","",""
"","null","html-keyboard-response","137","2.0.0","197933","pb25qkhc1hd","turtle","<div style=""font-size:60px;"">+</div>","null","","",""
"","null","html-keyboard-response","138","2.0.0","199436","pb25qkhc1hd","turtle","<p>office</p>","null","","",""
"","null","html-keyboard-response","139","2.0.0","200443","pb25qkhc1hd","turtle","<div style=""font-size:60px;"">+</div>","null","","",""
"","null","html-keyboard-response","140","2.0.0","201947","pb25qkhc1hd","turtle","<p>nurse</p>","null","","",""
"","null","html-keyboard-response","141","2.0.0","202950","pb25qkhc1hd","turtle","<div style=""font-size:60px;"">+</div>","null","","",""
"","null","html-keyboard-response","142","2.0.0","204456","pb25qkhc1hd","turtle","<p>stethoscope</p>","null","","",""
"","null","html-keyboard-response","143","2.0.0","205460","pb25qkhc1hd","turtle","<div style=""font-size:60px;"">+</div>","null","","",""
"","null","html-keyboard-response","144","2.0.0","206967","pb25qkhc1hd","turtle","<p>hospital</p>","null","","",""
"","null","html-keyboard-response","145","2.0.0","207973","pb25qkhc1hd","turtle","<div style=""font-size:60px;"">+</div>","null","","",""
"","null","html-keyboard-response","146","2.0.0","209477","pb25qkhc1hd","turtle","<p>sick</p>","null","","",""
"","null","html-keyboard-response","147","2.0.0","210485","pb25qkhc1hd","turtle","<div style=""font-size:60px;"">+</div>","null","","",""
"","null","html-keyboard-response","148","2.0.0","211991","pb25qkhc1hd","turtle","<p>physician</p>","null","","",""
"","null","html-keyboard-response","149","2.0.0","212997","pb25qkhc1hd","turtle","<div style=""font-size:60px;"">+</div>","null","","",""
"","null","html-keyboard-response","150","2.0.0","214504","pb25qkhc1hd","turtle","<p>health</p>","null","","",""
"","null","html-keyboard-response","151","2.0.0","215510","pb25qkhc1hd","turtle","<div style=""font-size:60px;"">+</div>","null","","",""
"","null","html-keyboard-response","152","2.0.0","217017","pb25qkhc1hd","turtle","<p>dentist</p>","null","","",""
"","7388","html-keyboard-response","153","2.0.0","224406","pb25qkhc1hd","turtle","Now you will rate your confidence that each word occurred on the list. <p>Please indicate whether you think the word was definitely new, probably new, probably old, or definitely old.</p> <p>Press any key to continue.</P>"," ","","",""
"","8593","survey-likert","154","null","233006","pb25qkhc1hd","turtle","","{""Q0"":1}","doctor","recognition","[0]"
"","4474","survey-likert","155","null","237483","pb25qkhc1hd","turtle","","{""Q0"":3}","frigid","recognition","[0]"
"","4101","survey-likert","156","null","241585","pb25qkhc1hd","turtle","","{""Q0"":2}","cold","recognition","[0]"
"","3018","survey-likert","157","null","244604","pb25qkhc1hd","turtle","","{""Q0"":3}","black","recognition","[0]"
"","3149","survey-likert","158","null","247755","pb25qkhc1hd","turtle","","{""Q0"":1}","attention","recognition","[0]"
"","3516","survey-likert","159","null","251273","pb25qkhc1hd","turtle","","{""Q0"":3}","elephant","recognition","[0]"
"","3307","survey-likert","160","null","254582","pb25qkhc1hd","turtle","","{""Q0"":1}","drift","recognition","[0]"
"","3201","survey-likert","161","null","257785","pb25qkhc1hd","turtle","","{""Q0"":1}","noise","recognition","[0]"
"","3147","survey-likert","162","null","260933","pb25qkhc1hd","turtle","","{""Q0"":2}","table","recognition","[0]"
"","2055","survey-likert","163","null","262989","pb25qkhc1hd","turtle","","{""Q0"":1}","laptop","recognition","[0]"
"","2062","survey-likert","164","null","265052","pb25qkhc1hd","turtle","","{""Q0"":1}","book","recognition","[0]"
"","1855","survey-likert","165","null","266909","pb25qkhc1hd","turtle","","{""Q0"":1}","window","recognition","[0]"
"","1781","survey-likert","166","null","268692","pb25qkhc1hd","turtle","","{""Q0"":1}","camera","recognition","[0]"
"","2713","survey-likert","167","null","271408","pb25qkhc1hd","turtle","","{""Q0"":1}","river","recognition","[0]"
"","2292","survey-likert","168","null","273701","pb25qkhc1hd","turtle","","{""Q0"":3}","chair","recognition","[0]"
"","2248","survey-likert","169","null","275951","pb25qkhc1hd","turtle","","{""Q0"":1}","sandwich","recognition","[0]"
"","1894","survey-likert","170","null","277846","pb25qkhc1hd","turtle","","{""Q0"":3}","anger","recognition","[0]"
"","1694","survey-likert","171","null","279541","pb25qkhc1hd","turtle","","{""Q0"":1}","balloon","recognition","[0]"
"","2214","survey-likert","172","null","281757","pb25qkhc1hd","turtle","","{""Q0"":2}","basket","recognition","[0]"
"","1791","survey-likert","173","null","283549","pb25qkhc1hd","turtle","","{""Q0"":1}","curtain","recognition","[0]"
"","1827","survey-likert","174","null","285379","pb25qkhc1hd","turtle","","{""Q0"":1}","slice","recognition","[0]"
"","2272","survey-likert","175","null","287655","pb25qkhc1hd","turtle","","{""Q0"":3}","mean","recognition","[0]"
"","2615","survey-likert","176","null","290271","pb25qkhc1hd","turtle","","{""Q0"":3}","recliner","recognition","[0]"
"","2906","survey-likert","177","null","293179","pb25qkhc1hd","turtle","","{""Q0"":1}","balance","recognition","[0]"
"","2053","survey-likert","178","null","295234","pb25qkhc1hd","turtle","","{""Q0"":1}","shade","recognition","[0]"
"","1958","survey-likert","179","null","297194","pb25qkhc1hd","turtle","","{""Q0"":1}","planet","recognition","[0]"
"","1982","survey-likert","180","null","299177","pb25qkhc1hd","turtle","","{""Q0"":3}","funeral","recognition","[0]"
"","1949","survey-likert","181","null","301127","pb25qkhc1hd","turtle","","{""Q0"":1}","clock","recognition","[0]"
"","2690","survey-likert","182","null","303818","pb25qkhc1hd","turtle","","{""Q0"":2}","ice","recognition","[0]"
"","2184","survey-likert","183","null","306004","pb25qkhc1hd","turtle","","{""Q0"":3}","stethoscope","recognition","[0]"
"","6317","survey-likert","184","null","312323","pb25qkhc1hd","turtle","","{""Q0"":1}","oven","recognition","[0]"
"","1804","survey-likert","185","null","314129","pb25qkhc1hd","turtle","","{""Q0"":1}","mountain","recognition","[0]"
"","2055","survey-likert","186","null","316185","pb25qkhc1hd","turtle","","{""Q0"":1}","void","recognition","[0]"
"","2487","survey-likert","187","null","318674","pb25qkhc1hd","turtle","","{""Q0"":3}","conflict","recognition","[0]"
"","5170","survey-likert","188","null","323845","pb25qkhc1hd","turtle","","{""Q0"":2}","frame","recognition","[0]"
"","2328","survey-likert","189","null","326174","pb25qkhc1hd","turtle","","{""Q0"":1}","guitar","recognition","[0]"
"","3092","survey-likert","190","null","329268","pb25qkhc1hd","turtle","","{""Q0"":3}","ink","recognition","[0]"
"","3434","survey-likert","191","null","332704","pb25qkhc1hd","turtle","","{""Q0"":2}","office","recognition","[0]"
"","2069","survey-likert","192","null","334776","pb25qkhc1hd","turtle","","{""Q0"":0}","lighthouse","recognition","[0]"
"","2367","survey-likert","193","null","337145","pb25qkhc1hd","turtle","","{""Q0"":1}","procedure","recognition","[0]"
"","2865","survey-likert","194","null","340012","pb25qkhc1hd","turtle","","{""Q0"":1}","bread","recognition","[0]"
"","2342","survey-likert","195","null","342355","pb25qkhc1hd","turtle","","{""Q0"":3}","wrath","recognition","[0]"
"","38720","survey-text","196","2.0.0","381113","pb25qkhc1hd","turtle","","{""age"":""20"",""gender"":""female"",""Q2"":""to see if we will incorrectly remember a word as being in a list if it fits the context of it"",""Q3"":""no""}","","",""
