"success","rt","trial_type","trial_index","plugin_version","time_elapsed","random_id","participant","stimulus","response","word","type","question_order"
"true","3951","fullscreen","0","null","4956","pbomzsx5uv0","penguin","","","","",""
"","65203","html-keyboard-response","1","2.0.0","70161","pbomzsx5uv0","penguin","Welcome to the Fasle Recall Experiment.<p>You will see and listen to 6 lists of 12-words one at a time. Try to remember as many as you can.</p><p>After the list, you’ll be asked to complete a recognition test.</p><p>Press any key to begin.</p>","AudioVolumeUp","","",""
"","5990","survey-text","2","2.0.0","76155","pbomzsx5uv0","penguin","","{""participant_id"":""penguin""}","","",""
"","null","html-keyboard-response","3","2.0.0","78157","pbomzsx5uv0","penguin","<h3>List 1 </h3>","null","","",""
"","null","html-keyboard-response","4","2.0.0","79165","pbomzsx5uv0","penguin","<div style=""font-size:60px;"">+</div>","null","","",""
"","null","html-keyboard-response","5","2.0.0","80677","pbomzsx5uv0","penguin","<p>winter</p>","null","","",""
"","null","html-keyboard-response","6","2.0.0","81683","pbomzsx5uv0","penguin","<div style=""font-size:60px;"">+</div>","null","","",""
"","null","html-keyboard-response","7","2.0.0","83199","pbomzsx5uv0","penguin","<p>weather</p>","null","","",""
"","null","html-keyboard-response","8","2.0.0","84209","pbomzsx5uv0","penguin","<div style=""font-size:60px;"">+</div>","null","","",""
"","null","html-keyboard-response","9","2.0.0","85716","pbomzsx5uv0","penguin","<p>air</p>","null","","",""
"","null","html-keyboard-response","10","2.0.0","86731","pbomzsx5uv0","penguin","<div style=""font-size:60px;"">+</div>","null","","",""
"","null","html-keyboard-response","11","2.0.0","88234","pbomzsx5uv0","penguin","<p>chilly</p>","null","","",""
"","null","html-keyboard-response","12","2.0.0","89252","pbomzsx5uv0","penguin","<div style=""font-size:60px;"">+</div>","null","","",""
"","null","html-keyboard-response","13","2.0.0","90755","pbomzsx5uv0","penguin","<p>wet</p>","null","","",""
"","null","html-keyboard-response","14","2.0.0","91772","pbomzsx5uv0","penguin","<div style=""font-size:60px;"">+</div>","null","","",""
"","null","html-keyboard-response","15","2.0.0","93285","pbomzsx5uv0","penguin","<p>ice</p>","null","","",""
"","null","html-keyboard-response","16","2.0.0","94299","pbomzsx5uv0","penguin","<div style=""font-size:60px;"">+</div>","null","","",""
"","null","html-keyboard-response","17","2.0.0","95813","pbomzsx5uv0","penguin","<p>warm</p>","null","","",""
"","null","html-keyboard-response","18","2.0.0","96827","pbomzsx5uv0","penguin","<div style=""font-size:60px;"">+</div>","null","","",""
"","null","html-keyboard-response","19","2.0.0","98341","pbomzsx5uv0","penguin","<p>snow</p>","null","","",""
"","null","html-keyboard-response","20","2.0.0","99355","pbomzsx5uv0","penguin","<div style=""font-size:60px;"">+</div>","null","","",""
"","null","html-keyboard-response","21","2.0.0","100869","pbomzsx5uv0","penguin","<p>frigid</p>","null","","",""
"","null","html-keyboard-response","22","2.0.0","101885","pbomzsx5uv0","penguin","<div style=""font-size:60px;"">+</div>","null","","",""
"","null","html-keyboard-response","23","2.0.0","103398","pbomzsx5uv0","penguin","<p>heat</p>","null","","",""
"","null","html-keyboard-response","24","2.0.0","104415","pbomzsx5uv0","penguin","<div style=""font-size:60px;"">+</div>","null","","",""
"","null","html-keyboard-response","25","2.0.0","105918","pbomzsx5uv0","penguin","<p>freeze</p>","null","","",""
"","null","html-keyboard-response","26","2.0.0","106933","pbomzsx5uv0","penguin","<div style=""font-size:60px;"">+</div>","null","","",""
"","null","html-keyboard-response","27","2.0.0","108447","pbomzsx5uv0","penguin","<p>hot</p>","null","","",""
"","null","html-keyboard-response","28","2.0.0","110461","pbomzsx5uv0","penguin","<h3>List 2 </h3>","null","","",""
"","null","html-keyboard-response","29","2.0.0","111475","pbomzsx5uv0","penguin","<div style=""font-size:60px;"">+</div>","null","","",""
"","null","html-keyboard-response","30","2.0.0","112990","pbomzsx5uv0","penguin","<p>recliner</p>","null","","",""
"","null","html-keyboard-response","31","2.0.0","114002","pbomzsx5uv0","penguin","<div style=""font-size:60px;"">+</div>","null","","",""
"","null","html-keyboard-response","32","2.0.0","115512","pbomzsx5uv0","penguin","<p>swivel</p>","null","","",""
"","null","html-keyboard-response","33","2.0.0","116525","pbomzsx5uv0","penguin","<div style=""font-size:60px;"">+</div>","null","","",""
"","null","html-keyboard-response","34","2.0.0","118036","pbomzsx5uv0","penguin","<p>table</p>","null","","",""
"","null","html-keyboard-response","35","2.0.0","119051","pbomzsx5uv0","penguin","<div style=""font-size:60px;"">+</div>","null","","",""
"","null","html-keyboard-response","36","2.0.0","120555","pbomzsx5uv0","penguin","<p>stool</p>","null","","",""
"","null","html-keyboard-response","37","2.0.0","121568","pbomzsx5uv0","penguin","<div style=""font-size:60px;"">+</div>","null","","",""
"","null","html-keyboard-response","38","2.0.0","123081","pbomzsx5uv0","penguin","<p>couch</p>","null","","",""
"","null","html-keyboard-response","39","2.0.0","124094","pbomzsx5uv0","penguin","<div style=""font-size:60px;"">+</div>","null","","",""
"","null","html-keyboard-response","40","2.0.0","125610","pbomzsx5uv0","penguin","<p>cushion</p>","null","","",""
"","null","html-keyboard-response","41","2.0.0","126624","pbomzsx5uv0","penguin","<div style=""font-size:60px;"">+</div>","null","","",""
"","null","html-keyboard-response","42","2.0.0","128140","pbomzsx5uv0","penguin","<p>sit</p>","null","","",""
"","null","html-keyboard-response","43","2.0.0","129153","pbomzsx5uv0","penguin","<div style=""font-size:60px;"">+</div>","null","","",""
"","null","html-keyboard-response","44","2.0.0","130665","pbomzsx5uv0","penguin","<p>sofa</p>","null","","",""
"","null","html-keyboard-response","45","2.0.0","131680","pbomzsx5uv0","penguin","<div style=""font-size:60px;"">+</div>","null","","",""
"","null","html-keyboard-response","46","2.0.0","133182","pbomzsx5uv0","penguin","<p>desk</p>","null","","",""
"","null","html-keyboard-response","47","2.0.0","134197","pbomzsx5uv0","penguin","<div style=""font-size:60px;"">+</div>","null","","",""
"","null","html-keyboard-response","48","2.0.0","135710","pbomzsx5uv0","penguin","<p>wood</p>","null","","",""
"","null","html-keyboard-response","49","2.0.0","136717","pbomzsx5uv0","penguin","<div style=""font-size:60px;"">+</div>","null","","",""
"","null","html-keyboard-response","50","2.0.0","138227","pbomzsx5uv0","penguin","<p>seat</p>","null","","",""
"","null","html-keyboard-response","51","2.0.0","139233","pbomzsx5uv0","penguin","<div style=""font-size:60px;"">+</div>","null","","",""
"","null","html-keyboard-response","52","2.0.0","140737","pbomzsx5uv0","penguin","<p>legs</p>","null","","",""
"","null","html-keyboard-response","53","2.0.0","142749","pbomzsx5uv0","penguin","<h3>List 3 </h3>","null","","",""
"","null","html-keyboard-response","54","2.0.0","143765","pbomzsx5uv0","penguin","<div style=""font-size:60px;"">+</div>","null","","",""
"","null","html-keyboard-response","55","2.0.0","145268","pbomzsx5uv0","penguin","<p>ink</p>","null","","",""
"","null","html-keyboard-response","56","2.0.0","146271","pbomzsx5uv0","penguin","<div style=""font-size:60px;"">+</div>","null","","",""
"","null","html-keyboard-response","57","2.0.0","147785","pbomzsx5uv0","penguin","<p>white</p>","null","","",""
"","null","html-keyboard-response","58","2.0.0","148800","pbomzsx5uv0","penguin","<div style=""font-size:60px;"">+</div>","null","","",""
"","null","html-keyboard-response","59","2.0.0","150315","pbomzsx5uv0","penguin","<p>dark</p>","null","","",""
"","null","html-keyboard-response","60","2.0.0","151327","pbomzsx5uv0","penguin","<div style=""font-size:60px;"">+</div>","null","","",""
"","null","html-keyboard-response","61","2.0.0","152845","pbomzsx5uv0","penguin","<p>color</p>","null","","",""
"","null","html-keyboard-response","62","2.0.0","153847","pbomzsx5uv0","penguin","<div style=""font-size:60px;"">+</div>","null","","",""
"","null","html-keyboard-response","63","2.0.0","155352","pbomzsx5uv0","penguin","<p>cat</p>","null","","",""
"","null","html-keyboard-response","64","2.0.0","156364","pbomzsx5uv0","penguin","<div style=""font-size:60px;"">+</div>","null","","",""
"","null","html-keyboard-response","65","2.0.0","157876","pbomzsx5uv0","penguin","<p>death</p>","null","","",""
"","null","html-keyboard-response","66","2.0.0","158887","pbomzsx5uv0","penguin","<div style=""font-size:60px;"">+</div>","null","","",""
"","null","html-keyboard-response","67","2.0.0","160402","pbomzsx5uv0","penguin","<p>charred</p>","null","","",""
"","null","html-keyboard-response","68","2.0.0","161405","pbomzsx5uv0","penguin","<div style=""font-size:60px;"">+</div>","null","","",""
"","null","html-keyboard-response","69","2.0.0","162919","pbomzsx5uv0","penguin","<p>funeral</p>","null","","",""
"","null","html-keyboard-response","70","2.0.0","163935","pbomzsx5uv0","penguin","<div style=""font-size:60px;"">+</div>","null","","",""
"","null","html-keyboard-response","71","2.0.0","165450","pbomzsx5uv0","penguin","<p>grief</p>","null","","",""
"","null","html-keyboard-response","72","2.0.0","166465","pbomzsx5uv0","penguin","<div style=""font-size:60px;"">+</div>","null","","",""
"","null","html-keyboard-response","73","2.0.0","167980","pbomzsx5uv0","penguin","<p>blue</p>","null","","",""
"","null","html-keyboard-response","74","2.0.0","168994","pbomzsx5uv0","penguin","<div style=""font-size:60px;"">+</div>","null","","",""
"","null","html-keyboard-response","75","2.0.0","170498","pbomzsx5uv0","penguin","<p>bottom</p>","null","","",""
"","null","html-keyboard-response","76","2.0.0","171501","pbomzsx5uv0","penguin","<div style=""font-size:60px;"">+</div>","null","","",""
"","null","html-keyboard-response","77","2.0.0","173007","pbomzsx5uv0","penguin","<p>night</p>","null","","",""
"","null","html-keyboard-response","78","2.0.0","175011","pbomzsx5uv0","penguin","<h3>List 4 </h3>","null","","",""
"","null","html-keyboard-response","79","2.0.0","176026","pbomzsx5uv0","penguin","<div style=""font-size:60px;"">+</div>","null","","",""
"","null","html-keyboard-response","80","2.0.0","177540","pbomzsx5uv0","penguin","<p>lawyer</p>","null","","",""
"","null","html-keyboard-response","81","2.0.0","178543","pbomzsx5uv0","penguin","<div style=""font-size:60px;"">+</div>","null","","",""
"","null","html-keyboard-response","82","2.0.0","180048","pbomzsx5uv0","penguin","<p>dentist</p>","null","","",""
"","null","html-keyboard-response","83","2.0.0","181050","pbomzsx5uv0","penguin","<div style=""font-size:60px;"">+</div>","null","","",""
"","null","html-keyboard-response","84","2.0.0","182551","pbomzsx5uv0","penguin","<p>nurse</p>","null","","",""
"","null","html-keyboard-response","85","2.0.0","183553","pbomzsx5uv0","penguin","<div style=""font-size:60px;"">+</div>","null","","",""
"","null","html-keyboard-response","86","2.0.0","185055","pbomzsx5uv0","penguin","<p>physician</p>","null","","",""
"","null","html-keyboard-response","87","2.0.0","186073","pbomzsx5uv0","penguin","<div style=""font-size:60px;"">+</div>","null","","",""
"","null","html-keyboard-response","88","2.0.0","187579","pbomzsx5uv0","penguin","<p>hospital</p>","null","","",""
"","null","html-keyboard-response","89","2.0.0","188581","pbomzsx5uv0","penguin","<div style=""font-size:60px;"">+</div>","null","","",""
"","null","html-keyboard-response","90","2.0.0","190084","pbomzsx5uv0","penguin","<p>stethoscope</p>","null","","",""
"","null","html-keyboard-response","91","2.0.0","191088","pbomzsx5uv0","penguin","<div style=""font-size:60px;"">+</div>","null","","",""
"","null","html-keyboard-response","92","2.0.0","192603","pbomzsx5uv0","penguin","<p>patient</p>","null","","",""
"","null","html-keyboard-response","93","2.0.0","193606","pbomzsx5uv0","penguin","<div style=""font-size:60px;"">+</div>","null","","",""
"","null","html-keyboard-response","94","2.0.0","195108","pbomzsx5uv0","penguin","<p>sick</p>","null","","",""
"","null","html-keyboard-response","95","2.0.0","196118","pbomzsx5uv0","penguin","<div style=""font-size:60px;"">+</div>","null","","",""
"","null","html-keyboard-response","96","2.0.0","197632","pbomzsx5uv0","penguin","<p>office</p>","null","","",""
"","null","html-keyboard-response","97","2.0.0","198633","pbomzsx5uv0","penguin","<div style=""font-size:60px;"">+</div>","null","","",""
"","null","html-keyboard-response","98","2.0.0","200139","pbomzsx5uv0","penguin","<p>ill</p>","null","","",""
"","null","html-keyboard-response","99","2.0.0","201156","pbomzsx5uv0","penguin","<div style=""font-size:60px;"">+</div>","null","","",""
"","null","html-keyboard-response","100","2.0.0","202668","pbomzsx5uv0","penguin","<p>medicine</p>","null","","",""
"","null","html-keyboard-response","101","2.0.0","203669","pbomzsx5uv0","penguin","<div style=""font-size:60px;"">+</div>","null","","",""
"","null","html-keyboard-response","102","2.0.0","205173","pbomzsx5uv0","penguin","<p>health</p>","null","","",""
"","null","html-keyboard-response","103","2.0.0","207189","pbomzsx5uv0","penguin","<h3>List 5 </h3>","null","","",""
"","null","html-keyboard-response","104","2.0.0","208202","pbomzsx5uv0","penguin","<div style=""font-size:60px;"">+</div>","null","","",""
"","null","html-keyboard-response","105","2.0.0","209718","pbomzsx5uv0","penguin","<p>eat</p>","null","","",""
"","null","html-keyboard-response","106","2.0.0","210730","pbomzsx5uv0","penguin","<div style=""font-size:60px;"">+</div>","null","","",""
"","null","html-keyboard-response","107","2.0.0","212244","pbomzsx5uv0","penguin","<p>crust</p>","null","","",""
"","null","html-keyboard-response","108","2.0.0","213257","pbomzsx5uv0","penguin","<div style=""font-size:60px;"">+</div>","null","","",""
"","null","html-keyboard-response","109","2.0.0","214760","pbomzsx5uv0","penguin","<p>food</p>","null","","",""
"","null","html-keyboard-response","110","2.0.0","215772","pbomzsx5uv0","penguin","<div style=""font-size:60px;"">+</div>","null","","",""
"","null","html-keyboard-response","111","2.0.0","217287","pbomzsx5uv0","penguin","<p>sandwich</p>","null","","",""
"","null","html-keyboard-response","112","2.0.0","218302","pbomzsx5uv0","penguin","<div style=""font-size:60px;"">+</div>","null","","",""
"","null","html-keyboard-response","113","2.0.0","219816","pbomzsx5uv0","penguin","<p>slice</p>","null","","",""
"","null","html-keyboard-response","114","2.0.0","220830","pbomzsx5uv0","penguin","<div style=""font-size:60px;"">+</div>","null","","",""
"","null","html-keyboard-response","115","2.0.0","222347","pbomzsx5uv0","penguin","<p>rye</p>","null","","",""
"","null","html-keyboard-response","116","2.0.0","223363","pbomzsx5uv0","penguin","<div style=""font-size:60px;"">+</div>","null","","",""
"","null","html-keyboard-response","117","2.0.0","224865","pbomzsx5uv0","penguin","<p>jam</p>","null","","",""
"","null","html-keyboard-response","118","2.0.0","225867","pbomzsx5uv0","penguin","<div style=""font-size:60px;"">+</div>","null","","",""
"","null","html-keyboard-response","119","2.0.0","227382","pbomzsx5uv0","penguin","<p>dough</p>","null","","",""
"","null","html-keyboard-response","120","2.0.0","228396","pbomzsx5uv0","penguin","<div style=""font-size:60px;"">+</div>","null","","",""
"","null","html-keyboard-response","121","2.0.0","229910","pbomzsx5uv0","penguin","<p>butter</p>","null","","",""
"","null","html-keyboard-response","122","2.0.0","230925","pbomzsx5uv0","penguin","<div style=""font-size:60px;"">+</div>","null","","",""
"","null","html-keyboard-response","123","2.0.0","232429","pbomzsx5uv0","penguin","<p>jelly</p>","null","","",""
"","null","html-keyboard-response","124","2.0.0","233443","pbomzsx5uv0","penguin","<div style=""font-size:60px;"">+</div>","null","","",""
"","null","html-keyboard-response","125","2.0.0","234956","pbomzsx5uv0","penguin","<p>milk</p>","null","","",""
"","null","html-keyboard-response","126","2.0.0","235967","pbomzsx5uv0","penguin","<div style=""font-size:60px;"">+</div>","null","","",""
"","null","html-keyboard-response","127","2.0.0","237482","pbomzsx5uv0","penguin","<p>flour</p>","null","","",""
"","null","html-keyboard-response","128","2.0.0","239497","pbomzsx5uv0","penguin","<h3>List 6 </h3>","null","","",""
"","null","html-keyboard-response","129","2.0.0","240511","pbomzsx5uv0","penguin","<div style=""font-size:60px;"">+</div>","null","","",""
"","null","html-keyboard-response","130","2.0.0","242015","pbomzsx5uv0","penguin","<p>hatred</p>","null","","",""
"","null","html-keyboard-response","131","2.0.0","243027","pbomzsx5uv0","penguin","<div style=""font-size:60px;"">+</div>","null","","",""
"","null","html-keyboard-response","132","2.0.0","244530","pbomzsx5uv0","penguin","<p>temper</p>","null","","",""
"","null","html-keyboard-response","133","2.0.0","245541","pbomzsx5uv0","penguin","<div style=""font-size:60px;"">+</div>","null","","",""
"","null","html-keyboard-response","134","2.0.0","247053","pbomzsx5uv0","penguin","<p>fear</p>","null","","",""
"","null","html-keyboard-response","135","2.0.0","248067","pbomzsx5uv0","penguin","<div style=""font-size:60px;"">+</div>","null","","",""
"","null","html-keyboard-response","136","2.0.0","249579","pbomzsx5uv0","penguin","<p>fury</p>","null","","",""
"","null","html-keyboard-response","137","2.0.0","250593","pbomzsx5uv0","penguin","<div style=""font-size:60px;"">+</div>","null","","",""
"","null","html-keyboard-response","138","2.0.0","252104","pbomzsx5uv0","penguin","<p>happy</p>","null","","",""
"","null","html-keyboard-response","139","2.0.0","253108","pbomzsx5uv0","penguin","<div style=""font-size:60px;"">+</div>","null","","",""
"","null","html-keyboard-response","140","2.0.0","254610","pbomzsx5uv0","penguin","<p>ire</p>","null","","",""
"","null","html-keyboard-response","141","2.0.0","255625","pbomzsx5uv0","penguin","<div style=""font-size:60px;"">+</div>","null","","",""
"","null","html-keyboard-response","142","2.0.0","257138","pbomzsx5uv0","penguin","<p>mean</p>","null","","",""
"","null","html-keyboard-response","143","2.0.0","258154","pbomzsx5uv0","penguin","<div style=""font-size:60px;"">+</div>","null","","",""
"","null","html-keyboard-response","144","2.0.0","259667","pbomzsx5uv0","penguin","<p>fight</p>","null","","",""
"","null","html-keyboard-response","145","2.0.0","260683","pbomzsx5uv0","penguin","<div style=""font-size:60px;"">+</div>","null","","",""
"","null","html-keyboard-response","146","2.0.0","262191","pbomzsx5uv0","penguin","<p>mad</p>","null","","",""
"","null","html-keyboard-response","147","2.0.0","263206","pbomzsx5uv0","penguin","<div style=""font-size:60px;"">+</div>","null","","",""
"","null","html-keyboard-response","148","2.0.0","264708","pbomzsx5uv0","penguin","<p>wrath</p>","null","","",""
"","null","html-keyboard-response","149","2.0.0","265721","pbomzsx5uv0","penguin","<div style=""font-size:60px;"">+</div>","null","","",""
"","null","html-keyboard-response","150","2.0.0","267236","pbomzsx5uv0","penguin","<p>rage</p>","null","","",""
"","null","html-keyboard-response","151","2.0.0","268249","pbomzsx5uv0","penguin","<div style=""font-size:60px;"">+</div>","null","","",""
"","null","html-keyboard-response","152","2.0.0","269755","pbomzsx5uv0","penguin","<p>hate</p>","null","","",""
"","2628","html-keyboard-response","153","2.0.0","272384","pbomzsx5uv0","penguin","Now you will rate your confidence that each word occurred on the list. <p>Please indicate whether you think the word was definitely new, probably new, probably old, or definitely old.</p> <p>Press any key to continue.</P>"," ","","",""
"","6167","survey-likert","154","null","278554","pbomzsx5uv0","penguin","","{""Q0"":0}","curtain","recognition","[0]"
"","4399","survey-likert","155","null","282956","pbomzsx5uv0","penguin","","{""Q0"":0}","shade","recognition","[0]"
"","2827","survey-likert","156","null","285785","pbomzsx5uv0","penguin","","{""Q0"":3}","chair","recognition","[0]"
"","2495","survey-likert","157","null","288282","pbomzsx5uv0","penguin","","{""Q0"":0}","laptop","recognition","[0]"
"","3377","survey-likert","158","null","291661","pbomzsx5uv0","penguin","","{""Q0"":3}","bread","recognition","[0]"
"","2013","survey-likert","159","null","293676","pbomzsx5uv0","penguin","","{""Q0"":1}","attention","recognition","[0]"
"","1947","survey-likert","160","null","295625","pbomzsx5uv0","penguin","","{""Q0"":2}","patient","recognition","[0]"
"","1868","survey-likert","161","null","297494","pbomzsx5uv0","penguin","","{""Q0"":3}","stool","recognition","[0]"
"","3128","survey-likert","162","null","300625","pbomzsx5uv0","penguin","","{""Q0"":1}","mountain","recognition","[0]"
"","1743","survey-likert","163","null","302370","pbomzsx5uv0","penguin","","{""Q0"":1}","drift","recognition","[0]"
"","2293","survey-likert","164","null","304665","pbomzsx5uv0","penguin","","{""Q0"":0}","window","recognition","[0]"
"","2063","survey-likert","165","null","306730","pbomzsx5uv0","penguin","","{""Q0"":0}","void","recognition","[0]"
"","2455","survey-likert","166","null","309187","pbomzsx5uv0","penguin","","{""Q0"":3}","heat","recognition","[0]"
"","1981","survey-likert","167","null","311170","pbomzsx5uv0","penguin","","{""Q0"":1}","clock","recognition","[0]"
"","4225","survey-likert","168","null","315397","pbomzsx5uv0","penguin","","{""Q0"":3}","desk","recognition","[0]"
"","1586","survey-likert","169","null","316985","pbomzsx5uv0","penguin","","{""Q0"":3}","sandwich","recognition","[0]"
"","2058","survey-likert","170","null","319045","pbomzsx5uv0","penguin","","{""Q0"":3}","doctor","recognition","[0]"
"","1907","survey-likert","171","null","320953","pbomzsx5uv0","penguin","","{""Q0"":1}","planet","recognition","[0]"
"","2896","survey-likert","172","null","323851","pbomzsx5uv0","penguin","","{""Q0"":0}","noise","recognition","[0]"
"","7047","survey-likert","173","null","330900","pbomzsx5uv0","penguin","","{""Q0"":0}","guitar","recognition","[0]"
"","1720","survey-likert","174","null","332621","pbomzsx5uv0","penguin","","{""Q0"":0}","balloon","recognition","[0]"
"","2035","survey-likert","175","null","334658","pbomzsx5uv0","penguin","","{""Q0"":3}","grief","recognition","[0]"
"","3838","survey-likert","176","null","338498","pbomzsx5uv0","penguin","","{""Q0"":2}","book","recognition","[0]"
"","1935","survey-likert","177","null","340435","pbomzsx5uv0","penguin","","{""Q0"":0}","lighthouse","recognition","[0]"
"","1520","survey-likert","178","null","341957","pbomzsx5uv0","penguin","","{""Q0"":0}","elephant","recognition","[0]"
"","1913","survey-likert","179","null","343872","pbomzsx5uv0","penguin","","{""Q0"":3}","frigid","recognition","[0]"
"","1884","survey-likert","180","null","345758","pbomzsx5uv0","penguin","","{""Q0"":0}","blue","recognition","[0]"
"","1784","survey-likert","181","null","347544","pbomzsx5uv0","penguin","","{""Q0"":3}","food","recognition","[0]"
"","2631","survey-likert","182","null","350177","pbomzsx5uv0","penguin","","{""Q0"":1}","frame","recognition","[0]"
"","2032","survey-likert","183","null","352212","pbomzsx5uv0","penguin","","{""Q0"":1}","river","recognition","[0]"
"","1749","survey-likert","184","null","353963","pbomzsx5uv0","penguin","","{""Q0"":2}","conflict","recognition","[0]"
"","1472","survey-likert","185","null","355437","pbomzsx5uv0","penguin","","{""Q0"":2}","procedure","recognition","[0]"
"","2254","survey-likert","186","null","357693","pbomzsx5uv0","penguin","","{""Q0"":1}","basket","recognition","[0]"
"","2055","survey-likert","187","null","359750","pbomzsx5uv0","penguin","","{""Q0"":3}","cold","recognition","[0]"
"","1703","survey-likert","188","null","361456","pbomzsx5uv0","penguin","","{""Q0"":0}","camera","recognition","[0]"
"","1991","survey-likert","189","null","363450","pbomzsx5uv0","penguin","","{""Q0"":2}","health","recognition","[0]"
"","2234","survey-likert","190","null","365686","pbomzsx5uv0","penguin","","{""Q0"":3}","black","recognition","[0]"
"","5180","survey-likert","191","null","370868","pbomzsx5uv0","penguin","","{""Q0"":3}","mad","recognition","[0]"
"","1856","survey-likert","192","null","372725","pbomzsx5uv0","penguin","","{""Q0"":1}","balance","recognition","[0]"
"","1693","survey-likert","193","null","374420","pbomzsx5uv0","penguin","","{""Q0"":1}","mean","recognition","[0]"
"","1656","survey-likert","194","null","376079","pbomzsx5uv0","penguin","","{""Q0"":1}","oven","recognition","[0]"
"","3050","survey-likert","195","null","379131","pbomzsx5uv0","penguin","","{""Q0"":3}","anger","recognition","[0]"
"","21528","survey-text","196","2.0.0","400664","pbomzsx5uv0","penguin","","{""age"":""19"",""gender"":""Male"",""Q2"":""To test human memory in specific topics, where each topic was a different list."",""Q3"":""""}","","",""
