"success","rt","trial_type","trial_index","plugin_version","time_elapsed","random_id","participant","stimulus","response","word","type","question_order"
"true","1995","fullscreen","0","null","3000","pfovxblnuyb","nm","","","","",""
"","10969","html-keyboard-response","1","2.0.0","13972","pfovxblnuyb","nm","Welcome to the Fasle Recall Experiment.<p>You will see and listen to 6 lists of 12-words one at a time. Try to remember as many as you can.</p><p>After the list, you’ll be asked to complete a recognition test.</p><p>Press any key to begin.</p>"," ","","",""
"","2424","survey-text","2","2.0.0","16400","pfovxblnuyb","nm","","{""participant_id"":""nm""}","","",""
"","null","html-keyboard-response","3","2.0.0","18403","pfovxblnuyb","nm","<h3>List 1 </h3>","null","","",""
"","null","html-keyboard-response","4","2.0.0","19406","pfovxblnuyb","nm","<div style=""font-size:60px;"">+</div>","null","","",""
"","null","html-keyboard-response","5","2.0.0","20909","pfovxblnuyb","nm","<p>food</p>","null","","",""
"","null","html-keyboard-response","6","2.0.0","21911","pfovxblnuyb","nm","<div style=""font-size:60px;"">+</div>","null","","",""
"","null","html-keyboard-response","7","2.0.0","23414","pfovxblnuyb","nm","<p>slice</p>","null","","",""
"","null","html-keyboard-response","8","2.0.0","24416","pfovxblnuyb","nm","<div style=""font-size:60px;"">+</div>","null","","",""
"","null","html-keyboard-response","9","2.0.0","25919","pfovxblnuyb","nm","<p>jam</p>","null","","",""
"","null","html-keyboard-response","10","2.0.0","26922","pfovxblnuyb","nm","<div style=""font-size:60px;"">+</div>","null","","",""
"","null","html-keyboard-response","11","2.0.0","28425","pfovxblnuyb","nm","<p>rye</p>","null","","",""
"","null","html-keyboard-response","12","2.0.0","29428","pfovxblnuyb","nm","<div style=""font-size:60px;"">+</div>","null","","",""
"","null","html-keyboard-response","13","2.0.0","30931","pfovxblnuyb","nm","<p>butter</p>","null","","",""
"","null","html-keyboard-response","14","2.0.0","31934","pfovxblnuyb","nm","<div style=""font-size:60px;"">+</div>","null","","",""
"","null","html-keyboard-response","15","2.0.0","33437","pfovxblnuyb","nm","<p>flour</p>","null","","",""
"","null","html-keyboard-response","16","2.0.0","34441","pfovxblnuyb","nm","<div style=""font-size:60px;"">+</div>","null","","",""
"","null","html-keyboard-response","17","2.0.0","35943","pfovxblnuyb","nm","<p>dough</p>","null","","",""
"","null","html-keyboard-response","18","2.0.0","36946","pfovxblnuyb","nm","<div style=""font-size:60px;"">+</div>","null","","",""
"","null","html-keyboard-response","19","2.0.0","38449","pfovxblnuyb","nm","<p>sandwich</p>","null","","",""
"","null","html-keyboard-response","20","2.0.0","39452","pfovxblnuyb","nm","<div style=""font-size:60px;"">+</div>","null","","",""
"","null","html-keyboard-response","21","2.0.0","40954","pfovxblnuyb","nm","<p>crust</p>","null","","",""
"","null","html-keyboard-response","22","2.0.0","41958","pfovxblnuyb","nm","<div style=""font-size:60px;"">+</div>","null","","",""
"","null","html-keyboard-response","23","2.0.0","43459","pfovxblnuyb","nm","<p>milk</p>","null","","",""
"","null","html-keyboard-response","24","2.0.0","44462","pfovxblnuyb","nm","<div style=""font-size:60px;"">+</div>","null","","",""
"","null","html-keyboard-response","25","2.0.0","45964","pfovxblnuyb","nm","<p>jelly</p>","null","","",""
"","null","html-keyboard-response","26","2.0.0","46967","pfovxblnuyb","nm","<div style=""font-size:60px;"">+</div>","null","","",""
"","null","html-keyboard-response","27","2.0.0","48469","pfovxblnuyb","nm","<p>eat</p>","null","","",""
"","null","html-keyboard-response","28","2.0.0","50472","pfovxblnuyb","nm","<h3>List 2 </h3>","null","","",""
"","null","html-keyboard-response","29","2.0.0","51475","pfovxblnuyb","nm","<div style=""font-size:60px;"">+</div>","null","","",""
"","null","html-keyboard-response","30","2.0.0","52978","pfovxblnuyb","nm","<p>grief</p>","null","","",""
"","null","html-keyboard-response","31","2.0.0","53981","pfovxblnuyb","nm","<div style=""font-size:60px;"">+</div>","null","","",""
"","null","html-keyboard-response","32","2.0.0","55483","pfovxblnuyb","nm","<p>charred</p>","null","","",""
"","null","html-keyboard-response","33","2.0.0","56486","pfovxblnuyb","nm","<div style=""font-size:60px;"">+</div>","null","","",""
"","null","html-keyboard-response","34","2.0.0","57989","pfovxblnuyb","nm","<p>dark</p>","null","","",""
"","null","html-keyboard-response","35","2.0.0","58993","pfovxblnuyb","nm","<div style=""font-size:60px;"">+</div>","null","","",""
"","null","html-keyboard-response","36","2.0.0","60495","pfovxblnuyb","nm","<p>ink</p>","null","","",""
"","null","html-keyboard-response","37","2.0.0","61497","pfovxblnuyb","nm","<div style=""font-size:60px;"">+</div>","null","","",""
"","null","html-keyboard-response","38","2.0.0","62999","pfovxblnuyb","nm","<p>cat</p>","null","","",""
"","null","html-keyboard-response","39","2.0.0","64002","pfovxblnuyb","nm","<div style=""font-size:60px;"">+</div>","null","","",""
"","null","html-keyboard-response","40","2.0.0","65505","pfovxblnuyb","nm","<p>white</p>","null","","",""
"","null","html-keyboard-response","41","2.0.0","66507","pfovxblnuyb","nm","<div style=""font-size:60px;"">+</div>","null","","",""
"","null","html-keyboard-response","42","2.0.0","68010","pfovxblnuyb","nm","<p>blue</p>","null","","",""
"","null","html-keyboard-response","43","2.0.0","69012","pfovxblnuyb","nm","<div style=""font-size:60px;"">+</div>","null","","",""
"","null","html-keyboard-response","44","2.0.0","70515","pfovxblnuyb","nm","<p>night</p>","null","","",""
"","null","html-keyboard-response","45","2.0.0","71517","pfovxblnuyb","nm","<div style=""font-size:60px;"">+</div>","null","","",""
"","null","html-keyboard-response","46","2.0.0","73019","pfovxblnuyb","nm","<p>bottom</p>","null","","",""
"","null","html-keyboard-response","47","2.0.0","74022","pfovxblnuyb","nm","<div style=""font-size:60px;"">+</div>","null","","",""
"","null","html-keyboard-response","48","2.0.0","75524","pfovxblnuyb","nm","<p>color</p>","null","","",""
"","null","html-keyboard-response","49","2.0.0","76527","pfovxblnuyb","nm","<div style=""font-size:60px;"">+</div>","null","","",""
"","null","html-keyboard-response","50","2.0.0","78030","pfovxblnuyb","nm","<p>funeral</p>","null","","",""
"","null","html-keyboard-response","51","2.0.0","79032","pfovxblnuyb","nm","<div style=""font-size:60px;"">+</div>","null","","",""
"","null","html-keyboard-response","52","2.0.0","80535","pfovxblnuyb","nm","<p>death</p>","null","","",""
"","null","html-keyboard-response","53","2.0.0","82538","pfovxblnuyb","nm","<h3>List 3 </h3>","null","","",""
"","null","html-keyboard-response","54","2.0.0","83540","pfovxblnuyb","nm","<div style=""font-size:60px;"">+</div>","null","","",""
"","null","html-keyboard-response","55","2.0.0","85042","pfovxblnuyb","nm","<p>weather</p>","null","","",""
"","null","html-keyboard-response","56","2.0.0","86045","pfovxblnuyb","nm","<div style=""font-size:60px;"">+</div>","null","","",""
"","null","html-keyboard-response","57","2.0.0","87548","pfovxblnuyb","nm","<p>snow</p>","null","","",""
"","null","html-keyboard-response","58","2.0.0","88551","pfovxblnuyb","nm","<div style=""font-size:60px;"">+</div>","null","","",""
"","null","html-keyboard-response","59","2.0.0","90053","pfovxblnuyb","nm","<p>winter</p>","null","","",""
"","null","html-keyboard-response","60","2.0.0","91056","pfovxblnuyb","nm","<div style=""font-size:60px;"">+</div>","null","","",""
"","null","html-keyboard-response","61","2.0.0","92558","pfovxblnuyb","nm","<p>freeze</p>","null","","",""
"","null","html-keyboard-response","62","2.0.0","93561","pfovxblnuyb","nm","<div style=""font-size:60px;"">+</div>","null","","",""
"","null","html-keyboard-response","63","2.0.0","95064","pfovxblnuyb","nm","<p>warm</p>","null","","",""
"","null","html-keyboard-response","64","2.0.0","96067","pfovxblnuyb","nm","<div style=""font-size:60px;"">+</div>","null","","",""
"","null","html-keyboard-response","65","2.0.0","97569","pfovxblnuyb","nm","<p>frigid</p>","null","","",""
"","null","html-keyboard-response","66","2.0.0","98572","pfovxblnuyb","nm","<div style=""font-size:60px;"">+</div>","null","","",""
"","null","html-keyboard-response","67","2.0.0","100074","pfovxblnuyb","nm","<p>wet</p>","null","","",""
"","null","html-keyboard-response","68","2.0.0","101077","pfovxblnuyb","nm","<div style=""font-size:60px;"">+</div>","null","","",""
"","null","html-keyboard-response","69","2.0.0","102580","pfovxblnuyb","nm","<p>heat</p>","null","","",""
"","null","html-keyboard-response","70","2.0.0","103582","pfovxblnuyb","nm","<div style=""font-size:60px;"">+</div>","null","","",""
"","null","html-keyboard-response","71","2.0.0","105085","pfovxblnuyb","nm","<p>air</p>","null","","",""
"","null","html-keyboard-response","72","2.0.0","106088","pfovxblnuyb","nm","<div style=""font-size:60px;"">+</div>","null","","",""
"","null","html-keyboard-response","73","2.0.0","107590","pfovxblnuyb","nm","<p>hot</p>","null","","",""
"","null","html-keyboard-response","74","2.0.0","108593","pfovxblnuyb","nm","<div style=""font-size:60px;"">+</div>","null","","",""
"","null","html-keyboard-response","75","2.0.0","110095","pfovxblnuyb","nm","<p>chilly</p>","null","","",""
"","null","html-keyboard-response","76","2.0.0","111098","pfovxblnuyb","nm","<div style=""font-size:60px;"">+</div>","null","","",""
"","null","html-keyboard-response","77","2.0.0","112601","pfovxblnuyb","nm","<p>ice</p>","null","","",""
"","null","html-keyboard-response","78","2.0.0","114602","pfovxblnuyb","nm","<h3>List 4 </h3>","null","","",""
"","null","html-keyboard-response","79","2.0.0","115605","pfovxblnuyb","nm","<div style=""font-size:60px;"">+</div>","null","","",""
"","null","html-keyboard-response","80","2.0.0","117108","pfovxblnuyb","nm","<p>desk</p>","null","","",""
"","null","html-keyboard-response","81","2.0.0","118110","pfovxblnuyb","nm","<div style=""font-size:60px;"">+</div>","null","","",""
"","null","html-keyboard-response","82","2.0.0","119613","pfovxblnuyb","nm","<p>sit</p>","null","","",""
"","null","html-keyboard-response","83","2.0.0","120615","pfovxblnuyb","nm","<div style=""font-size:60px;"">+</div>","null","","",""
"","null","html-keyboard-response","84","2.0.0","122118","pfovxblnuyb","nm","<p>table</p>","null","","",""
"","null","html-keyboard-response","85","2.0.0","123121","pfovxblnuyb","nm","<div style=""font-size:60px;"">+</div>","null","","",""
"","null","html-keyboard-response","86","2.0.0","124624","pfovxblnuyb","nm","<p>stool</p>","null","","",""
"","null","html-keyboard-response","87","2.0.0","125627","pfovxblnuyb","nm","<div style=""font-size:60px;"">+</div>","null","","",""
"","null","html-keyboard-response","88","2.0.0","127129","pfovxblnuyb","nm","<p>seat</p>","null","","",""
"","null","html-keyboard-response","89","2.0.0","128132","pfovxblnuyb","nm","<div style=""font-size:60px;"">+</div>","null","","",""
"","null","html-keyboard-response","90","2.0.0","129635","pfovxblnuyb","nm","<p>couch</p>","null","","",""
"","null","html-keyboard-response","91","2.0.0","130638","pfovxblnuyb","nm","<div style=""font-size:60px;"">+</div>","null","","",""
"","null","html-keyboard-response","92","2.0.0","132140","pfovxblnuyb","nm","<p>legs</p>","null","","",""
"","null","html-keyboard-response","93","2.0.0","133143","pfovxblnuyb","nm","<div style=""font-size:60px;"">+</div>","null","","",""
"","null","html-keyboard-response","94","2.0.0","134645","pfovxblnuyb","nm","<p>recliner</p>","null","","",""
"","null","html-keyboard-response","95","2.0.0","135648","pfovxblnuyb","nm","<div style=""font-size:60px;"">+</div>","null","","",""
"","null","html-keyboard-response","96","2.0.0","137151","pfovxblnuyb","nm","<p>swivel</p>","null","","",""
"","null","html-keyboard-response","97","2.0.0","138154","pfovxblnuyb","nm","<div style=""font-size:60px;"">+</div>","null","","",""
"","null","html-keyboard-response","98","2.0.0","139656","pfovxblnuyb","nm","<p>wood</p>","null","","",""
"","null","html-keyboard-response","99","2.0.0","140659","pfovxblnuyb","nm","<div style=""font-size:60px;"">+</div>","null","","",""
"","null","html-keyboard-response","100","2.0.0","142162","pfovxblnuyb","nm","<p>cushion</p>","null","","",""
"","null","html-keyboard-response","101","2.0.0","143164","pfovxblnuyb","nm","<div style=""font-size:60px;"">+</div>","null","","",""
"","null","html-keyboard-response","102","2.0.0","144667","pfovxblnuyb","nm","<p>sofa</p>","null","","",""
"","null","html-keyboard-response","103","2.0.0","146670","pfovxblnuyb","nm","<h3>List 5 </h3>","null","","",""
"","null","html-keyboard-response","104","2.0.0","147673","pfovxblnuyb","nm","<div style=""font-size:60px;"">+</div>","null","","",""
"","null","html-keyboard-response","105","2.0.0","149175","pfovxblnuyb","nm","<p>office</p>","null","","",""
"","null","html-keyboard-response","106","2.0.0","150178","pfovxblnuyb","nm","<div style=""font-size:60px;"">+</div>","null","","",""
"","null","html-keyboard-response","107","2.0.0","151680","pfovxblnuyb","nm","<p>ill</p>","null","","",""
"","null","html-keyboard-response","108","2.0.0","152682","pfovxblnuyb","nm","<div style=""font-size:60px;"">+</div>","null","","",""
"","null","html-keyboard-response","109","2.0.0","154184","pfovxblnuyb","nm","<p>lawyer</p>","null","","",""
"","null","html-keyboard-response","110","2.0.0","155186","pfovxblnuyb","nm","<div style=""font-size:60px;"">+</div>","null","","",""
"","null","html-keyboard-response","111","2.0.0","156689","pfovxblnuyb","nm","<p>health</p>","null","","",""
"","null","html-keyboard-response","112","2.0.0","157691","pfovxblnuyb","nm","<div style=""font-size:60px;"">+</div>","null","","",""
"","null","html-keyboard-response","113","2.0.0","159194","pfovxblnuyb","nm","<p>nurse</p>","null","","",""
"","null","html-keyboard-response","114","2.0.0","160197","pfovxblnuyb","nm","<div style=""font-size:60px;"">+</div>","null","","",""
"","null","html-keyboard-response","115","2.0.0","161699","pfovxblnuyb","nm","<p>medicine</p>","null","","",""
"","null","html-keyboard-response","116","2.0.0","162701","pfovxblnuyb","nm","<div style=""font-size:60px;"">+</div>","null","","",""
"","null","html-keyboard-response","117","2.0.0","164204","pfovxblnuyb","nm","<p>sick</p>","null","","",""
"","null","html-keyboard-response","118","2.0.0","165207","pfovxblnuyb","nm","<div style=""font-size:60px;"">+</div>","null","","",""
"","null","html-keyboard-response","119","2.0.0","166709","pfovxblnuyb","nm","<p>physician</p>","null","","",""
"","null","html-keyboard-response","120","2.0.0","167712","pfovxblnuyb","nm","<div style=""font-size:60px;"">+</div>","null","","",""
"","null","html-keyboard-response","121","2.0.0","169214","pfovxblnuyb","nm","<p>stethoscope</p>","null","","",""
"","null","html-keyboard-response","122","2.0.0","170217","pfovxblnuyb","nm","<div style=""font-size:60px;"">+</div>","null","","",""
"","null","html-keyboard-response","123","2.0.0","171719","pfovxblnuyb","nm","<p>hospital</p>","null","","",""
"","null","html-keyboard-response","124","2.0.0","172722","pfovxblnuyb","nm","<div style=""font-size:60px;"">+</div>","null","","",""
"","null","html-keyboard-response","125","2.0.0","174224","pfovxblnuyb","nm","<p>patient</p>","null","","",""
"","null","html-keyboard-response","126","2.0.0","175226","pfovxblnuyb","nm","<div style=""font-size:60px;"">+</div>","null","","",""
"","null","html-keyboard-response","127","2.0.0","176729","pfovxblnuyb","nm","<p>dentist</p>","null","","",""
"","null","html-keyboard-response","128","2.0.0","178732","pfovxblnuyb","nm","<h3>List 6 </h3>","null","","",""
"","null","html-keyboard-response","129","2.0.0","179734","pfovxblnuyb","nm","<div style=""font-size:60px;"">+</div>","null","","",""
"","null","html-keyboard-response","130","2.0.0","181236","pfovxblnuyb","nm","<p>happy</p>","null","","",""
"","null","html-keyboard-response","131","2.0.0","182239","pfovxblnuyb","nm","<div style=""font-size:60px;"">+</div>","null","","",""
"","null","html-keyboard-response","132","2.0.0","183741","pfovxblnuyb","nm","<p>fear</p>","null","","",""
"","null","html-keyboard-response","133","2.0.0","184743","pfovxblnuyb","nm","<div style=""font-size:60px;"">+</div>","null","","",""
"","null","html-keyboard-response","134","2.0.0","186245","pfovxblnuyb","nm","<p>ire</p>","null","","",""
"","null","html-keyboard-response","135","2.0.0","187248","pfovxblnuyb","nm","<div style=""font-size:60px;"">+</div>","null","","",""
"","null","html-keyboard-response","136","2.0.0","188751","pfovxblnuyb","nm","<p>fury</p>","null","","",""
"","null","html-keyboard-response","137","2.0.0","189754","pfovxblnuyb","nm","<div style=""font-size:60px;"">+</div>","null","","",""
"","null","html-keyboard-response","138","2.0.0","191256","pfovxblnuyb","nm","<p>mad</p>","null","","",""
"","null","html-keyboard-response","139","2.0.0","192259","pfovxblnuyb","nm","<div style=""font-size:60px;"">+</div>","null","","",""
"","null","html-keyboard-response","140","2.0.0","193762","pfovxblnuyb","nm","<p>hatred</p>","null","","",""
"","null","html-keyboard-response","141","2.0.0","194764","pfovxblnuyb","nm","<div style=""font-size:60px;"">+</div>","null","","",""
"","null","html-keyboard-response","142","2.0.0","196267","pfovxblnuyb","nm","<p>wrath</p>","null","","",""
"","null","html-keyboard-response","143","2.0.0","197268","pfovxblnuyb","nm","<div style=""font-size:60px;"">+</div>","null","","",""
"","null","html-keyboard-response","144","2.0.0","198771","pfovxblnuyb","nm","<p>rage</p>","null","","",""
"","null","html-keyboard-response","145","2.0.0","199774","pfovxblnuyb","nm","<div style=""font-size:60px;"">+</div>","null","","",""
"","null","html-keyboard-response","146","2.0.0","201277","pfovxblnuyb","nm","<p>mean</p>","null","","",""
"","null","html-keyboard-response","147","2.0.0","202279","pfovxblnuyb","nm","<div style=""font-size:60px;"">+</div>","null","","",""
"","null","html-keyboard-response","148","2.0.0","203781","pfovxblnuyb","nm","<p>fight</p>","null","","",""
"","null","html-keyboard-response","149","2.0.0","204784","pfovxblnuyb","nm","<div style=""font-size:60px;"">+</div>","null","","",""
"","null","html-keyboard-response","150","2.0.0","206286","pfovxblnuyb","nm","<p>hate</p>","null","","",""
"","null","html-keyboard-response","151","2.0.0","207289","pfovxblnuyb","nm","<div style=""font-size:60px;"">+</div>","null","","",""
"","null","html-keyboard-response","152","2.0.0","208792","pfovxblnuyb","nm","<p>temper</p>","null","","",""
"","4249","html-keyboard-response","153","2.0.0","213042","pfovxblnuyb","nm","Now you will rate your confidence that each word occurred on the list. <p>Please indicate whether you think the word was definitely new, probably new, probably old, or definitely old.</p> <p>Press any key to continue.</P>"," ","","",""
"","2819","survey-likert","154","null","215865","pfovxblnuyb","nm","","{""Q0"":0}","planet","recognition","[0]"
"","2980","survey-likert","155","null","218847","pfovxblnuyb","nm","","{""Q0"":2}","bread","recognition","[0]"
"","3148","survey-likert","156","null","221998","pfovxblnuyb","nm","","{""Q0"":2}","fear","recognition","[0]"
"","3297","survey-likert","157","null","225297","pfovxblnuyb","nm","","{""Q0"":1}","mountain","recognition","[0]"
"","4831","survey-likert","158","null","230131","pfovxblnuyb","nm","","{""Q0"":2}","balloon","recognition","[0]"
"","2431","survey-likert","159","null","232564","pfovxblnuyb","nm","","{""Q0"":1}","camera","recognition","[0]"
"","2732","survey-likert","160","null","235298","pfovxblnuyb","nm","","{""Q0"":3}","dentist","recognition","[0]"
"","2630","survey-likert","161","null","237930","pfovxblnuyb","nm","","{""Q0"":1}","attention","recognition","[0]"
"","2114","survey-likert","162","null","240047","pfovxblnuyb","nm","","{""Q0"":2}","black","recognition","[0]"
"","3965","survey-likert","163","null","244014","pfovxblnuyb","nm","","{""Q0"":3}","lawyer","recognition","[0]"
"","3448","survey-likert","164","null","247464","pfovxblnuyb","nm","","{""Q0"":1}","guitar","recognition","[0]"
"","3531","survey-likert","165","null","250997","pfovxblnuyb","nm","","{""Q0"":1}","drift","recognition","[0]"
"","5764","survey-likert","166","null","256763","pfovxblnuyb","nm","","{""Q0"":1}","procedure","recognition","[0]"
"","1515","survey-likert","167","null","258280","pfovxblnuyb","nm","","{""Q0"":2}","conflict","recognition","[0]"
"","1498","survey-likert","168","null","259780","pfovxblnuyb","nm","","{""Q0"":2}","white","recognition","[0]"
"","1481","survey-likert","169","null","261263","pfovxblnuyb","nm","","{""Q0"":1}","frame","recognition","[0]"
"","1765","survey-likert","170","null","263030","pfovxblnuyb","nm","","{""Q0"":2}","elephant","recognition","[0]"
"","1181","survey-likert","171","null","264214","pfovxblnuyb","nm","","{""Q0"":2}","cushion","recognition","[0]"
"","2164","survey-likert","172","null","266380","pfovxblnuyb","nm","","{""Q0"":1}","hate","recognition","[0]"
"","4214","survey-likert","173","null","270597","pfovxblnuyb","nm","","{""Q0"":2}","ice","recognition","[0]"
"","1532","survey-likert","174","null","272130","pfovxblnuyb","nm","","{""Q0"":2}","clock","recognition","[0]"
"","1414","survey-likert","175","null","273547","pfovxblnuyb","nm","","{""Q0"":2}","doctor","recognition","[0]"
"","2914","survey-likert","176","null","276463","pfovxblnuyb","nm","","{""Q0"":2}","anger","recognition","[0]"
"","3198","survey-likert","177","null","279663","pfovxblnuyb","nm","","{""Q0"":2}","winter","recognition","[0]"
"","2664","survey-likert","178","null","282330","pfovxblnuyb","nm","","{""Q0"":1}","recliner","recognition","[0]"
"","2181","survey-likert","179","null","284513","pfovxblnuyb","nm","","{""Q0"":1}","window","recognition","[0]"
"","1597","survey-likert","180","null","286113","pfovxblnuyb","nm","","{""Q0"":2}","curtain","recognition","[0]"
"","1615","survey-likert","181","null","287730","pfovxblnuyb","nm","","{""Q0"":2}","basket","recognition","[0]"
"","2047","survey-likert","182","null","289779","pfovxblnuyb","nm","","{""Q0"":1}","laptop","recognition","[0]"
"","2748","survey-likert","183","null","292529","pfovxblnuyb","nm","","{""Q0"":2}","balance","recognition","[0]"
"","2032","survey-likert","184","null","294563","pfovxblnuyb","nm","","{""Q0"":2}","noise","recognition","[0]"
"","1581","survey-likert","185","null","296147","pfovxblnuyb","nm","","{""Q0"":2}","shade","recognition","[0]"
"","2348","survey-likert","186","null","298497","pfovxblnuyb","nm","","{""Q0"":1}","bottom","recognition","[0]"
"","3164","survey-likert","187","null","301663","pfovxblnuyb","nm","","{""Q0"":2}","dough","recognition","[0]"
"","3015","survey-likert","188","null","304680","pfovxblnuyb","nm","","{""Q0"":2}","river","recognition","[0]"
"","2131","survey-likert","189","null","306813","pfovxblnuyb","nm","","{""Q0"":1}","cold","recognition","[0]"
"","2265","survey-likert","190","null","309080","pfovxblnuyb","nm","","{""Q0"":1}","book","recognition","[0]"
"","2447","survey-likert","191","null","311529","pfovxblnuyb","nm","","{""Q0"":2}","chair","recognition","[0]"
"","1882","survey-likert","192","null","313414","pfovxblnuyb","nm","","{""Q0"":1}","oven","recognition","[0]"
"","1464","survey-likert","193","null","314880","pfovxblnuyb","nm","","{""Q0"":2}","jam","recognition","[0]"
"","2631","survey-likert","194","null","317513","pfovxblnuyb","nm","","{""Q0"":1}","void","recognition","[0]"
"","2331","survey-likert","195","null","319846","pfovxblnuyb","nm","","{""Q0"":1}","lighthouse","recognition","[0]"
"","121615","survey-text","196","2.0.0","441467","pfovxblnuyb","nm","","{""age"":""11"",""gender"":""aa"",""Q2"":""qq"",""Q3"":""q,,""}","","",""
