"success","rt","trial_type","trial_index","plugin_version","time_elapsed","random_id","participant","stimulus","response","word","type","question_order"
"true","1734","fullscreen","0","null","2853","pfpve9os644","camel","","","","",""
"","139330","html-keyboard-response","1","2.0.0","142186","pfpve9os644","camel","Welcome to the Fasle Recall Experiment.<p>You will see and listen to 6 lists of 12-words one at a time. Try to remember as many as you can.</p><p>After the list, you’ll be asked to complete a recognition test.</p><p>Press any key to begin.</p>"," ","","",""
"","1392","survey-text","2","2.0.0","143591","pfpve9os644","camel","","{""participant_id"":""camel""}","","",""
"","null","html-keyboard-response","3","2.0.0","145595","pfpve9os644","camel","<h3>List 1 </h3>","null","","",""
"","null","html-keyboard-response","4","2.0.0","146597","pfpve9os644","camel","<div style=""font-size:60px;"">+</div>","null","","",""
"","null","html-keyboard-response","5","2.0.0","148100","pfpve9os644","camel","<p>hatred</p>","null","","",""
"","null","html-keyboard-response","6","2.0.0","149102","pfpve9os644","camel","<div style=""font-size:60px;"">+</div>","null","","",""
"","null","html-keyboard-response","7","2.0.0","150603","pfpve9os644","camel","<p>fight</p>","null","","",""
"","null","html-keyboard-response","8","2.0.0","151605","pfpve9os644","camel","<div style=""font-size:60px;"">+</div>","null","","",""
"","null","html-keyboard-response","9","2.0.0","153107","pfpve9os644","camel","<p>mad</p>","null","","",""
"","null","html-keyboard-response","10","2.0.0","154109","pfpve9os644","camel","<div style=""font-size:60px;"">+</div>","null","","",""
"","null","html-keyboard-response","11","2.0.0","155611","pfpve9os644","camel","<p>hate</p>","null","","",""
"","null","html-keyboard-response","12","2.0.0","156613","pfpve9os644","camel","<div style=""font-size:60px;"">+</div>","null","","",""
"","null","html-keyboard-response","13","2.0.0","158116","pfpve9os644","camel","<p>happy</p>","null","","",""
"","null","html-keyboard-response","14","2.0.0","159116","pfpve9os644","camel","<div style=""font-size:60px;"">+</div>","null","","",""
"","null","html-keyboard-response","15","2.0.0","160617","pfpve9os644","camel","<p>wrath</p>","null","","",""
"","null","html-keyboard-response","16","2.0.0","161618","pfpve9os644","camel","<div style=""font-size:60px;"">+</div>","null","","",""
"","null","html-keyboard-response","17","2.0.0","163118","pfpve9os644","camel","<p>mean</p>","null","","",""
"","null","html-keyboard-response","18","2.0.0","164120","pfpve9os644","camel","<div style=""font-size:60px;"">+</div>","null","","",""
"","null","html-keyboard-response","19","2.0.0","165621","pfpve9os644","camel","<p>temper</p>","null","","",""
"","null","html-keyboard-response","20","2.0.0","166622","pfpve9os644","camel","<div style=""font-size:60px;"">+</div>","null","","",""
"","null","html-keyboard-response","21","2.0.0","168123","pfpve9os644","camel","<p>fury</p>","null","","",""
"","null","html-keyboard-response","22","2.0.0","169123","pfpve9os644","camel","<div style=""font-size:60px;"">+</div>","null","","",""
"","null","html-keyboard-response","23","2.0.0","170625","pfpve9os644","camel","<p>ire</p>","null","","",""
"","null","html-keyboard-response","24","2.0.0","171627","pfpve9os644","camel","<div style=""font-size:60px;"">+</div>","null","","",""
"","null","html-keyboard-response","25","2.0.0","173128","pfpve9os644","camel","<p>rage</p>","null","","",""
"","null","html-keyboard-response","26","2.0.0","174129","pfpve9os644","camel","<div style=""font-size:60px;"">+</div>","null","","",""
"","null","html-keyboard-response","27","2.0.0","175787","pfpve9os644","camel","<p>fear</p>","null","","",""
"","null","html-keyboard-response","28","2.0.0","177959","pfpve9os644","camel","<h3>List 2 </h3>","null","","",""
"","null","html-keyboard-response","29","2.0.0","178965","pfpve9os644","camel","<div style=""font-size:60px;"">+</div>","null","","",""
"","null","html-keyboard-response","30","2.0.0","180466","pfpve9os644","camel","<p>hot</p>","null","","",""
"","null","html-keyboard-response","31","2.0.0","181467","pfpve9os644","camel","<div style=""font-size:60px;"">+</div>","null","","",""
"","null","html-keyboard-response","32","2.0.0","182968","pfpve9os644","camel","<p>weather</p>","null","","",""
"","null","html-keyboard-response","33","2.0.0","183969","pfpve9os644","camel","<div style=""font-size:60px;"">+</div>","null","","",""
"","null","html-keyboard-response","34","2.0.0","185471","pfpve9os644","camel","<p>warm</p>","null","","",""
"","null","html-keyboard-response","35","2.0.0","186472","pfpve9os644","camel","<div style=""font-size:60px;"">+</div>","null","","",""
"","null","html-keyboard-response","36","2.0.0","187973","pfpve9os644","camel","<p>winter</p>","null","","",""
"","null","html-keyboard-response","37","2.0.0","188974","pfpve9os644","camel","<div style=""font-size:60px;"">+</div>","null","","",""
"","null","html-keyboard-response","38","2.0.0","190475","pfpve9os644","camel","<p>heat</p>","null","","",""
"","null","html-keyboard-response","39","2.0.0","191476","pfpve9os644","camel","<div style=""font-size:60px;"">+</div>","null","","",""
"","null","html-keyboard-response","40","2.0.0","192977","pfpve9os644","camel","<p>freeze</p>","null","","",""
"","null","html-keyboard-response","41","2.0.0","193979","pfpve9os644","camel","<div style=""font-size:60px;"">+</div>","null","","",""
"","null","html-keyboard-response","42","2.0.0","195481","pfpve9os644","camel","<p>frigid</p>","null","","",""
"","null","html-keyboard-response","43","2.0.0","196484","pfpve9os644","camel","<div style=""font-size:60px;"">+</div>","null","","",""
"","null","html-keyboard-response","44","2.0.0","197985","pfpve9os644","camel","<p>air</p>","null","","",""
"","null","html-keyboard-response","45","2.0.0","198986","pfpve9os644","camel","<div style=""font-size:60px;"">+</div>","null","","",""
"","null","html-keyboard-response","46","2.0.0","200487","pfpve9os644","camel","<p>chilly</p>","null","","",""
"","null","html-keyboard-response","47","2.0.0","201488","pfpve9os644","camel","<div style=""font-size:60px;"">+</div>","null","","",""
"","null","html-keyboard-response","48","2.0.0","202989","pfpve9os644","camel","<p>snow</p>","null","","",""
"","null","html-keyboard-response","49","2.0.0","203991","pfpve9os644","camel","<div style=""font-size:60px;"">+</div>","null","","",""
"","null","html-keyboard-response","50","2.0.0","205492","pfpve9os644","camel","<p>wet</p>","null","","",""
"","null","html-keyboard-response","51","2.0.0","206494","pfpve9os644","camel","<div style=""font-size:60px;"">+</div>","null","","",""
"","null","html-keyboard-response","52","2.0.0","207996","pfpve9os644","camel","<p>ice</p>","null","","",""
"","null","html-keyboard-response","53","2.0.0","209996","pfpve9os644","camel","<h3>List 3 </h3>","null","","",""
"","null","html-keyboard-response","54","2.0.0","211004","pfpve9os644","camel","<div style=""font-size:60px;"">+</div>","null","","",""
"","null","html-keyboard-response","55","2.0.0","212505","pfpve9os644","camel","<p>dough</p>","null","","",""
"","null","html-keyboard-response","56","2.0.0","213516","pfpve9os644","camel","<div style=""font-size:60px;"">+</div>","null","","",""
"","null","html-keyboard-response","57","2.0.0","215017","pfpve9os644","camel","<p>milk</p>","null","","",""
"","null","html-keyboard-response","58","2.0.0","216019","pfpve9os644","camel","<div style=""font-size:60px;"">+</div>","null","","",""
"","null","html-keyboard-response","59","2.0.0","217520","pfpve9os644","camel","<p>jelly</p>","null","","",""
"","null","html-keyboard-response","60","2.0.0","218522","pfpve9os644","camel","<div style=""font-size:60px;"">+</div>","null","","",""
"","null","html-keyboard-response","61","2.0.0","220024","pfpve9os644","camel","<p>crust</p>","null","","",""
"","null","html-keyboard-response","62","2.0.0","221025","pfpve9os644","camel","<div style=""font-size:60px;"">+</div>","null","","",""
"","null","html-keyboard-response","63","2.0.0","222527","pfpve9os644","camel","<p>jam</p>","null","","",""
"","null","html-keyboard-response","64","2.0.0","223528","pfpve9os644","camel","<div style=""font-size:60px;"">+</div>","null","","",""
"","null","html-keyboard-response","65","2.0.0","225028","pfpve9os644","camel","<p>flour</p>","null","","",""
"","null","html-keyboard-response","66","2.0.0","226031","pfpve9os644","camel","<div style=""font-size:60px;"">+</div>","null","","",""
"","null","html-keyboard-response","67","2.0.0","227531","pfpve9os644","camel","<p>sandwich</p>","null","","",""
"","null","html-keyboard-response","68","2.0.0","228596","pfpve9os644","camel","<div style=""font-size:60px;"">+</div>","null","","",""
"","null","html-keyboard-response","69","2.0.0","230128","pfpve9os644","camel","<p>butter</p>","null","","",""
"","null","html-keyboard-response","70","2.0.0","231140","pfpve9os644","camel","<div style=""font-size:60px;"">+</div>","null","","",""
"","null","html-keyboard-response","71","2.0.0","232641","pfpve9os644","camel","<p>slice</p>","null","","",""
"","null","html-keyboard-response","72","2.0.0","233642","pfpve9os644","camel","<div style=""font-size:60px;"">+</div>","null","","",""
"","null","html-keyboard-response","73","2.0.0","235142","pfpve9os644","camel","<p>rye</p>","null","","",""
"","null","html-keyboard-response","74","2.0.0","236143","pfpve9os644","camel","<div style=""font-size:60px;"">+</div>","null","","",""
"","null","html-keyboard-response","75","2.0.0","237645","pfpve9os644","camel","<p>eat</p>","null","","",""
"","null","html-keyboard-response","76","2.0.0","238647","pfpve9os644","camel","<div style=""font-size:60px;"">+</div>","null","","",""
"","null","html-keyboard-response","77","2.0.0","240147","pfpve9os644","camel","<p>food</p>","null","","",""
"","null","html-keyboard-response","78","2.0.0","242149","pfpve9os644","camel","<h3>List 4 </h3>","null","","",""
"","null","html-keyboard-response","79","2.0.0","243158","pfpve9os644","camel","<div style=""font-size:60px;"">+</div>","null","","",""
"","null","html-keyboard-response","80","2.0.0","244661","pfpve9os644","camel","<p>dark</p>","null","","",""
"","null","html-keyboard-response","81","2.0.0","245662","pfpve9os644","camel","<div style=""font-size:60px;"">+</div>","null","","",""
"","null","html-keyboard-response","82","2.0.0","247164","pfpve9os644","camel","<p>ink</p>","null","","",""
"","null","html-keyboard-response","83","2.0.0","248166","pfpve9os644","camel","<div style=""font-size:60px;"">+</div>","null","","",""
"","null","html-keyboard-response","84","2.0.0","249669","pfpve9os644","camel","<p>charred</p>","null","","",""
"","null","html-keyboard-response","85","2.0.0","250670","pfpve9os644","camel","<div style=""font-size:60px;"">+</div>","null","","",""
"","null","html-keyboard-response","86","2.0.0","252171","pfpve9os644","camel","<p>cat</p>","null","","",""
"","null","html-keyboard-response","87","2.0.0","253173","pfpve9os644","camel","<div style=""font-size:60px;"">+</div>","null","","",""
"","null","html-keyboard-response","88","2.0.0","254675","pfpve9os644","camel","<p>bottom</p>","null","","",""
"","null","html-keyboard-response","89","2.0.0","255674","pfpve9os644","camel","<div style=""font-size:60px;"">+</div>","null","","",""
"","null","html-keyboard-response","90","2.0.0","257176","pfpve9os644","camel","<p>death</p>","null","","",""
"","null","html-keyboard-response","91","2.0.0","258176","pfpve9os644","camel","<div style=""font-size:60px;"">+</div>","null","","",""
"","null","html-keyboard-response","92","2.0.0","259676","pfpve9os644","camel","<p>funeral</p>","null","","",""
"","null","html-keyboard-response","93","2.0.0","260679","pfpve9os644","camel","<div style=""font-size:60px;"">+</div>","null","","",""
"","null","html-keyboard-response","94","2.0.0","262180","pfpve9os644","camel","<p>blue</p>","null","","",""
"","null","html-keyboard-response","95","2.0.0","263182","pfpve9os644","camel","<div style=""font-size:60px;"">+</div>","null","","",""
"","null","html-keyboard-response","96","2.0.0","264682","pfpve9os644","camel","<p>color</p>","null","","",""
"","null","html-keyboard-response","97","2.0.0","265683","pfpve9os644","camel","<div style=""font-size:60px;"">+</div>","null","","",""
"","null","html-keyboard-response","98","2.0.0","267184","pfpve9os644","camel","<p>night</p>","null","","",""
"","null","html-keyboard-response","99","2.0.0","268185","pfpve9os644","camel","<div style=""font-size:60px;"">+</div>","null","","",""
"","null","html-keyboard-response","100","2.0.0","269687","pfpve9os644","camel","<p>white</p>","null","","",""
"","null","html-keyboard-response","101","2.0.0","270687","pfpve9os644","camel","<div style=""font-size:60px;"">+</div>","null","","",""
"","null","html-keyboard-response","102","2.0.0","272189","pfpve9os644","camel","<p>grief</p>","null","","",""
"","null","html-keyboard-response","103","2.0.0","274190","pfpve9os644","camel","<h3>List 5 </h3>","null","","",""
"","null","html-keyboard-response","104","2.0.0","275201","pfpve9os644","camel","<div style=""font-size:60px;"">+</div>","null","","",""
"","null","html-keyboard-response","105","2.0.0","276701","pfpve9os644","camel","<p>legs</p>","null","","",""
"","null","html-keyboard-response","106","2.0.0","277702","pfpve9os644","camel","<div style=""font-size:60px;"">+</div>","null","","",""
"","null","html-keyboard-response","107","2.0.0","279205","pfpve9os644","camel","<p>sit</p>","null","","",""
"","null","html-keyboard-response","108","2.0.0","280206","pfpve9os644","camel","<div style=""font-size:60px;"">+</div>","null","","",""
"","null","html-keyboard-response","109","2.0.0","281707","pfpve9os644","camel","<p>swivel</p>","null","","",""
"","null","html-keyboard-response","110","2.0.0","282708","pfpve9os644","camel","<div style=""font-size:60px;"">+</div>","null","","",""
"","null","html-keyboard-response","111","2.0.0","284209","pfpve9os644","camel","<p>recliner</p>","null","","",""
"","null","html-keyboard-response","112","2.0.0","285211","pfpve9os644","camel","<div style=""font-size:60px;"">+</div>","null","","",""
"","null","html-keyboard-response","113","2.0.0","286712","pfpve9os644","camel","<p>couch</p>","null","","",""
"","null","html-keyboard-response","114","2.0.0","287715","pfpve9os644","camel","<div style=""font-size:60px;"">+</div>","null","","",""
"","null","html-keyboard-response","115","2.0.0","289230","pfpve9os644","camel","<p>seat</p>","null","","",""
"","null","html-keyboard-response","116","2.0.0","290232","pfpve9os644","camel","<div style=""font-size:60px;"">+</div>","null","","",""
"","null","html-keyboard-response","117","2.0.0","291733","pfpve9os644","camel","<p>wood</p>","null","","",""
"","null","html-keyboard-response","118","2.0.0","292733","pfpve9os644","camel","<div style=""font-size:60px;"">+</div>","null","","",""
"","null","html-keyboard-response","119","2.0.0","294242","pfpve9os644","camel","<p>table</p>","null","","",""
"","null","html-keyboard-response","120","2.0.0","295243","pfpve9os644","camel","<div style=""font-size:60px;"">+</div>","null","","",""
"","null","html-keyboard-response","121","2.0.0","296744","pfpve9os644","camel","<p>sofa</p>","null","","",""
"","null","html-keyboard-response","122","2.0.0","297745","pfpve9os644","camel","<div style=""font-size:60px;"">+</div>","null","","",""
"","null","html-keyboard-response","123","2.0.0","299247","pfpve9os644","camel","<p>cushion</p>","null","","",""
"","null","html-keyboard-response","124","2.0.0","300248","pfpve9os644","camel","<div style=""font-size:60px;"">+</div>","null","","",""
"","null","html-keyboard-response","125","2.0.0","301749","pfpve9os644","camel","<p>stool</p>","null","","",""
"","null","html-keyboard-response","126","2.0.0","302751","pfpve9os644","camel","<div style=""font-size:60px;"">+</div>","null","","",""
"","null","html-keyboard-response","127","2.0.0","304252","pfpve9os644","camel","<p>desk</p>","null","","",""
"","null","html-keyboard-response","128","2.0.0","306254","pfpve9os644","camel","<h3>List 6 </h3>","null","","",""
"","null","html-keyboard-response","129","2.0.0","307256","pfpve9os644","camel","<div style=""font-size:60px;"">+</div>","null","","",""
"","null","html-keyboard-response","130","2.0.0","308759","pfpve9os644","camel","<p>ill</p>","null","","",""
"","null","html-keyboard-response","131","2.0.0","309759","pfpve9os644","camel","<div style=""font-size:60px;"">+</div>","null","","",""
"","null","html-keyboard-response","132","2.0.0","311261","pfpve9os644","camel","<p>office</p>","null","","",""
"","null","html-keyboard-response","133","2.0.0","312261","pfpve9os644","camel","<div style=""font-size:60px;"">+</div>","null","","",""
"","null","html-keyboard-response","134","2.0.0","313764","pfpve9os644","camel","<p>stethoscope</p>","null","","",""
"","null","html-keyboard-response","135","2.0.0","314764","pfpve9os644","camel","<div style=""font-size:60px;"">+</div>","null","","",""
"","null","html-keyboard-response","136","2.0.0","316265","pfpve9os644","camel","<p>medicine</p>","null","","",""
"","null","html-keyboard-response","137","2.0.0","317266","pfpve9os644","camel","<div style=""font-size:60px;"">+</div>","null","","",""
"","null","html-keyboard-response","138","2.0.0","318767","pfpve9os644","camel","<p>health</p>","null","","",""
"","null","html-keyboard-response","139","2.0.0","319767","pfpve9os644","camel","<div style=""font-size:60px;"">+</div>","null","","",""
"","null","html-keyboard-response","140","2.0.0","321284","pfpve9os644","camel","<p>sick</p>","null","","",""
"","null","html-keyboard-response","141","2.0.0","322285","pfpve9os644","camel","<div style=""font-size:60px;"">+</div>","null","","",""
"","null","html-keyboard-response","142","2.0.0","323786","pfpve9os644","camel","<p>physician</p>","null","","",""
"","null","html-keyboard-response","143","2.0.0","324787","pfpve9os644","camel","<div style=""font-size:60px;"">+</div>","null","","",""
"","null","html-keyboard-response","144","2.0.0","326288","pfpve9os644","camel","<p>patient</p>","null","","",""
"","null","html-keyboard-response","145","2.0.0","327290","pfpve9os644","camel","<div style=""font-size:60px;"">+</div>","null","","",""
"","null","html-keyboard-response","146","2.0.0","328790","pfpve9os644","camel","<p>lawyer</p>","null","","",""
"","null","html-keyboard-response","147","2.0.0","329792","pfpve9os644","camel","<div style=""font-size:60px;"">+</div>","null","","",""
"","null","html-keyboard-response","148","2.0.0","331293","pfpve9os644","camel","<p>hospital</p>","null","","",""
"","null","html-keyboard-response","149","2.0.0","332294","pfpve9os644","camel","<div style=""font-size:60px;"">+</div>","null","","",""
"","null","html-keyboard-response","150","2.0.0","333796","pfpve9os644","camel","<p>dentist</p>","null","","",""
"","null","html-keyboard-response","151","2.0.0","334798","pfpve9os644","camel","<div style=""font-size:60px;"">+</div>","null","","",""
"","null","html-keyboard-response","152","2.0.0","336300","pfpve9os644","camel","<p>nurse</p>","null","","",""
"","4790","html-keyboard-response","153","2.0.0","341090","pfpve9os644","camel","Now you will rate your confidence that each word occurred on the list. <p>Please indicate whether you think the word was definitely new, probably new, probably old, or definitely old.</p> <p>Press any key to continue.</P>"," ","","",""
"","6977","survey-likert","154","null","348068","pfpve9os644","camel","","{""Q0"":2}","book","recognition","[0]"
"","2311","survey-likert","155","null","350382","pfpve9os644","camel","","{""Q0"":3}","cold","recognition","[0]"
"","6334","survey-likert","156","null","356718","pfpve9os644","camel","","{""Q0"":2}","lighthouse","recognition","[0]"
"","2474","survey-likert","157","null","359193","pfpve9os644","camel","","{""Q0"":2}","black","recognition","[0]"
"","2710","survey-likert","158","null","361905","pfpve9os644","camel","","{""Q0"":2}","river","recognition","[0]"
"","2385","survey-likert","159","null","364291","pfpve9os644","camel","","{""Q0"":3}","hatred","recognition","[0]"
"","3214","survey-likert","160","null","367508","pfpve9os644","camel","","{""Q0"":2}","bread","recognition","[0]"
"","3761","survey-likert","161","null","371271","pfpve9os644","camel","","{""Q0"":3}","balance","recognition","[0]"
"","1618","survey-likert","162","null","372891","pfpve9os644","camel","","{""Q0"":2}","balloon","recognition","[0]"
"","2841","survey-likert","163","null","375734","pfpve9os644","camel","","{""Q0"":3}","anger","recognition","[0]"
"","2767","survey-likert","164","null","378504","pfpve9os644","camel","","{""Q0"":2}","laptop","recognition","[0]"
"","3222","survey-likert","165","null","381727","pfpve9os644","camel","","{""Q0"":2}","camera","recognition","[0]"
"","2493","survey-likert","166","null","384220","pfpve9os644","camel","","{""Q0"":3}","basket","recognition","[0]"
"","2645","survey-likert","167","null","386868","pfpve9os644","camel","","{""Q0"":2}","rage","recognition","[0]"
"","1952","survey-likert","168","null","388822","pfpve9os644","camel","","{""Q0"":2}","clock","recognition","[0]"
"","5201","survey-likert","169","null","394024","pfpve9os644","camel","","{""Q0"":2}","shade","recognition","[0]"
"","3093","survey-likert","170","null","397119","pfpve9os644","camel","","{""Q0"":0}","medicine","recognition","[0]"
"","1602","survey-likert","171","null","398724","pfpve9os644","camel","","{""Q0"":2}","elephant","recognition","[0]"
"","2116","survey-likert","172","null","400841","pfpve9os644","camel","","{""Q0"":0}","sick","recognition","[0]"
"","1676","survey-likert","173","null","402519","pfpve9os644","camel","","{""Q0"":1}","procedure","recognition","[0]"
"","4762","survey-likert","174","null","407283","pfpve9os644","camel","","{""Q0"":1}","desk","recognition","[0]"
"","2018","survey-likert","175","null","409303","pfpve9os644","camel","","{""Q0"":2}","planet","recognition","[0]"
"","2196","survey-likert","176","null","411501","pfpve9os644","camel","","{""Q0"":2}","frame","recognition","[0]"
"","3917","survey-likert","177","null","415421","pfpve9os644","camel","","{""Q0"":3}","eat","recognition","[0]"
"","2913","survey-likert","178","null","418335","pfpve9os644","camel","","{""Q0"":3}","guitar","recognition","[0]"
"","2414","survey-likert","179","null","420751","pfpve9os644","camel","","{""Q0"":3}","oven","recognition","[0]"
"","2559","survey-likert","180","null","423313","pfpve9os644","camel","","{""Q0"":3}","freeze","recognition","[0]"
"","2206","survey-likert","181","null","425520","pfpve9os644","camel","","{""Q0"":2}","conflict","recognition","[0]"
"","1987","survey-likert","182","null","427509","pfpve9os644","camel","","{""Q0"":3}","charred","recognition","[0]"
"","1710","survey-likert","183","null","429222","pfpve9os644","camel","","{""Q0"":1}","curtain","recognition","[0]"
"","1634","survey-likert","184","null","430857","pfpve9os644","camel","","{""Q0"":1}","window","recognition","[0]"
"","3641","survey-likert","185","null","434500","pfpve9os644","camel","","{""Q0"":2}","white","recognition","[0]"
"","3200","survey-likert","186","null","437702","pfpve9os644","camel","","{""Q0"":2}","chair","recognition","[0]"
"","1984","survey-likert","187","null","439689","pfpve9os644","camel","","{""Q0"":2}","seat","recognition","[0]"
"","3220","survey-likert","188","null","442910","pfpve9os644","camel","","{""Q0"":1}","mountain","recognition","[0]"
"","1650","survey-likert","189","null","444561","pfpve9os644","camel","","{""Q0"":2}","drift","recognition","[0]"
"","1431","survey-likert","190","null","445994","pfpve9os644","camel","","{""Q0"":0}","doctor","recognition","[0]"
"","3480","survey-likert","191","null","449475","pfpve9os644","camel","","{""Q0"":2}","noise","recognition","[0]"
"","2550","survey-likert","192","null","452027","pfpve9os644","camel","","{""Q0"":2}","dough","recognition","[0]"
"","3629","survey-likert","193","null","455658","pfpve9os644","camel","","{""Q0"":3}","ice","recognition","[0]"
"","2505","survey-likert","194","null","458164","pfpve9os644","camel","","{""Q0"":2}","void","recognition","[0]"
"","2643","survey-likert","195","null","460809","pfpve9os644","camel","","{""Q0"":2}","attention","recognition","[0]"
"","41246","survey-text","196","2.0.0","502064","pfpve9os644","camel","","{""age"":""23"",""gender"":""male"",""Q2"":""words that sound alike when you hear them, you place them together in terms of temporal stages (i hear 'this' and 'that', i place them as old)"",""Q3"":""no.""}","","",""
