"success","rt","trial_type","trial_index","plugin_version","time_elapsed","random_id","participant","stimulus","response","word","type","question_order"
"true","2288","fullscreen","0","null","3312","pfv4lc5tqk3","Beaver","","","","",""
"","80061","html-keyboard-response","1","2.0.0","83377","pfv4lc5tqk3","Beaver","Welcome to the Fasle Recall Experiment.<p>You will see and listen to 6 lists of 12-words one at a time. Try to remember as many as you can.</p><p>After the list, you’ll be asked to complete a recognition test.</p><p>Press any key to begin.</p>"," ","","",""
"","6001","survey-text","2","2.0.0","89387","pfv4lc5tqk3","Beaver","","{""participant_id"":""Beaver""}","","",""
"","null","html-keyboard-response","3","2.0.0","91399","pfv4lc5tqk3","Beaver","<h3>List 1 </h3>","null","","",""
"","null","html-keyboard-response","4","2.0.0","92402","pfv4lc5tqk3","Beaver","<div style=""font-size:60px;"">+</div>","null","","",""
"","null","html-keyboard-response","5","2.0.0","93912","pfv4lc5tqk3","Beaver","<p>legs</p>","null","","",""
"","null","html-keyboard-response","6","2.0.0","94926","pfv4lc5tqk3","Beaver","<div style=""font-size:60px;"">+</div>","null","","",""
"","null","html-keyboard-response","7","2.0.0","96430","pfv4lc5tqk3","Beaver","<p>stool</p>","null","","",""
"","null","html-keyboard-response","8","2.0.0","97440","pfv4lc5tqk3","Beaver","<div style=""font-size:60px;"">+</div>","null","","",""
"","null","html-keyboard-response","9","2.0.0","98950","pfv4lc5tqk3","Beaver","<p>swivel</p>","null","","",""
"","null","html-keyboard-response","10","2.0.0","99961","pfv4lc5tqk3","Beaver","<div style=""font-size:60px;"">+</div>","null","","",""
"","null","html-keyboard-response","11","2.0.0","101464","pfv4lc5tqk3","Beaver","<p>cushion</p>","null","","",""
"","null","html-keyboard-response","12","2.0.0","102475","pfv4lc5tqk3","Beaver","<div style=""font-size:60px;"">+</div>","null","","",""
"","null","html-keyboard-response","13","2.0.0","103984","pfv4lc5tqk3","Beaver","<p>wood</p>","null","","",""
"","null","html-keyboard-response","14","2.0.0","104990","pfv4lc5tqk3","Beaver","<div style=""font-size:60px;"">+</div>","null","","",""
"","null","html-keyboard-response","15","2.0.0","106500","pfv4lc5tqk3","Beaver","<p>table</p>","null","","",""
"","null","html-keyboard-response","16","2.0.0","107505","pfv4lc5tqk3","Beaver","<div style=""font-size:60px;"">+</div>","null","","",""
"","null","html-keyboard-response","17","2.0.0","109013","pfv4lc5tqk3","Beaver","<p>recliner</p>","null","","",""
"","null","html-keyboard-response","18","2.0.0","110027","pfv4lc5tqk3","Beaver","<div style=""font-size:60px;"">+</div>","null","","",""
"","null","html-keyboard-response","19","2.0.0","111535","pfv4lc5tqk3","Beaver","<p>sit</p>","null","","",""
"","null","html-keyboard-response","20","2.0.0","112542","pfv4lc5tqk3","Beaver","<div style=""font-size:60px;"">+</div>","null","","",""
"","null","html-keyboard-response","21","2.0.0","114045","pfv4lc5tqk3","Beaver","<p>seat</p>","null","","",""
"","null","html-keyboard-response","22","2.0.0","115054","pfv4lc5tqk3","Beaver","<div style=""font-size:60px;"">+</div>","null","","",""
"","null","html-keyboard-response","23","2.0.0","116565","pfv4lc5tqk3","Beaver","<p>sofa</p>","null","","",""
"","null","html-keyboard-response","24","2.0.0","117575","pfv4lc5tqk3","Beaver","<div style=""font-size:60px;"">+</div>","null","","",""
"","null","html-keyboard-response","25","2.0.0","119085","pfv4lc5tqk3","Beaver","<p>desk</p>","null","","",""
"","null","html-keyboard-response","26","2.0.0","120087","pfv4lc5tqk3","Beaver","<div style=""font-size:60px;"">+</div>","null","","",""
"","null","html-keyboard-response","27","2.0.0","121595","pfv4lc5tqk3","Beaver","<p>couch</p>","null","","",""
"","null","html-keyboard-response","28","2.0.0","123604","pfv4lc5tqk3","Beaver","<h3>List 2 </h3>","null","","",""
"","null","html-keyboard-response","29","2.0.0","124622","pfv4lc5tqk3","Beaver","<div style=""font-size:60px;"">+</div>","null","","",""
"","null","html-keyboard-response","30","2.0.0","126128","pfv4lc5tqk3","Beaver","<p>slice</p>","null","","",""
"","null","html-keyboard-response","31","2.0.0","127138","pfv4lc5tqk3","Beaver","<div style=""font-size:60px;"">+</div>","null","","",""
"","null","html-keyboard-response","32","2.0.0","128643","pfv4lc5tqk3","Beaver","<p>jelly</p>","null","","",""
"","null","html-keyboard-response","33","2.0.0","129658","pfv4lc5tqk3","Beaver","<div style=""font-size:60px;"">+</div>","null","","",""
"","null","html-keyboard-response","34","2.0.0","131171","pfv4lc5tqk3","Beaver","<p>milk</p>","null","","",""
"","null","html-keyboard-response","35","2.0.0","132176","pfv4lc5tqk3","Beaver","<div style=""font-size:60px;"">+</div>","null","","",""
"","null","html-keyboard-response","36","2.0.0","133685","pfv4lc5tqk3","Beaver","<p>rye</p>","null","","",""
"","null","html-keyboard-response","37","2.0.0","134698","pfv4lc5tqk3","Beaver","<div style=""font-size:60px;"">+</div>","null","","",""
"","null","html-keyboard-response","38","2.0.0","136203","pfv4lc5tqk3","Beaver","<p>eat</p>","null","","",""
"","null","html-keyboard-response","39","2.0.0","137209","pfv4lc5tqk3","Beaver","<div style=""font-size:60px;"">+</div>","null","","",""
"","null","html-keyboard-response","40","2.0.0","138715","pfv4lc5tqk3","Beaver","<p>butter</p>","null","","",""
"","null","html-keyboard-response","41","2.0.0","139722","pfv4lc5tqk3","Beaver","<div style=""font-size:60px;"">+</div>","null","","",""
"","null","html-keyboard-response","42","2.0.0","141225","pfv4lc5tqk3","Beaver","<p>sandwich</p>","null","","",""
"","null","html-keyboard-response","43","2.0.0","142229","pfv4lc5tqk3","Beaver","<div style=""font-size:60px;"">+</div>","null","","",""
"","null","html-keyboard-response","44","2.0.0","143735","pfv4lc5tqk3","Beaver","<p>jam</p>","null","","",""
"","null","html-keyboard-response","45","2.0.0","144739","pfv4lc5tqk3","Beaver","<div style=""font-size:60px;"">+</div>","null","","",""
"","null","html-keyboard-response","46","2.0.0","146257","pfv4lc5tqk3","Beaver","<p>crust</p>","null","","",""
"","null","html-keyboard-response","47","2.0.0","147259","pfv4lc5tqk3","Beaver","<div style=""font-size:60px;"">+</div>","null","","",""
"","null","html-keyboard-response","48","2.0.0","148775","pfv4lc5tqk3","Beaver","<p>dough</p>","null","","",""
"","null","html-keyboard-response","49","2.0.0","149790","pfv4lc5tqk3","Beaver","<div style=""font-size:60px;"">+</div>","null","","",""
"","null","html-keyboard-response","50","2.0.0","151295","pfv4lc5tqk3","Beaver","<p>food</p>","null","","",""
"","null","html-keyboard-response","51","2.0.0","152298","pfv4lc5tqk3","Beaver","<div style=""font-size:60px;"">+</div>","null","","",""
"","null","html-keyboard-response","52","2.0.0","153800","pfv4lc5tqk3","Beaver","<p>flour</p>","null","","",""
"","null","html-keyboard-response","53","2.0.0","155805","pfv4lc5tqk3","Beaver","<h3>List 3 </h3>","null","","",""
"","null","html-keyboard-response","54","2.0.0","156821","pfv4lc5tqk3","Beaver","<div style=""font-size:60px;"">+</div>","null","","",""
"","null","html-keyboard-response","55","2.0.0","158322","pfv4lc5tqk3","Beaver","<p>hot</p>","null","","",""
"","null","html-keyboard-response","56","2.0.0","159330","pfv4lc5tqk3","Beaver","<div style=""font-size:60px;"">+</div>","null","","",""
"","null","html-keyboard-response","57","2.0.0","160835","pfv4lc5tqk3","Beaver","<p>snow</p>","null","","",""
"","null","html-keyboard-response","58","2.0.0","161844","pfv4lc5tqk3","Beaver","<div style=""font-size:60px;"">+</div>","null","","",""
"","null","html-keyboard-response","59","2.0.0","163347","pfv4lc5tqk3","Beaver","<p>weather</p>","null","","",""
"","null","html-keyboard-response","60","2.0.0","164356","pfv4lc5tqk3","Beaver","<div style=""font-size:60px;"">+</div>","null","","",""
"","null","html-keyboard-response","61","2.0.0","165869","pfv4lc5tqk3","Beaver","<p>frigid</p>","null","","",""
"","null","html-keyboard-response","62","2.0.0","166874","pfv4lc5tqk3","Beaver","<div style=""font-size:60px;"">+</div>","null","","",""
"","null","html-keyboard-response","63","2.0.0","168377","pfv4lc5tqk3","Beaver","<p>freeze</p>","null","","",""
"","null","html-keyboard-response","64","2.0.0","169384","pfv4lc5tqk3","Beaver","<div style=""font-size:60px;"">+</div>","null","","",""
"","null","html-keyboard-response","65","2.0.0","170893","pfv4lc5tqk3","Beaver","<p>chilly</p>","null","","",""
"","null","html-keyboard-response","66","2.0.0","171905","pfv4lc5tqk3","Beaver","<div style=""font-size:60px;"">+</div>","null","","",""
"","null","html-keyboard-response","67","2.0.0","173419","pfv4lc5tqk3","Beaver","<p>warm</p>","null","","",""
"","null","html-keyboard-response","68","2.0.0","174425","pfv4lc5tqk3","Beaver","<div style=""font-size:60px;"">+</div>","null","","",""
"","null","html-keyboard-response","69","2.0.0","175933","pfv4lc5tqk3","Beaver","<p>ice</p>","null","","",""
"","null","html-keyboard-response","70","2.0.0","176940","pfv4lc5tqk3","Beaver","<div style=""font-size:60px;"">+</div>","null","","",""
"","null","html-keyboard-response","71","2.0.0","178455","pfv4lc5tqk3","Beaver","<p>air</p>","null","","",""
"","null","html-keyboard-response","72","2.0.0","179456","pfv4lc5tqk3","Beaver","<div style=""font-size:60px;"">+</div>","null","","",""
"","null","html-keyboard-response","73","2.0.0","180961","pfv4lc5tqk3","Beaver","<p>heat</p>","null","","",""
"","null","html-keyboard-response","74","2.0.0","181971","pfv4lc5tqk3","Beaver","<div style=""font-size:60px;"">+</div>","null","","",""
"","null","html-keyboard-response","75","2.0.0","183476","pfv4lc5tqk3","Beaver","<p>wet</p>","null","","",""
"","null","html-keyboard-response","76","2.0.0","184491","pfv4lc5tqk3","Beaver","<div style=""font-size:60px;"">+</div>","null","","",""
"","null","html-keyboard-response","77","2.0.0","185996","pfv4lc5tqk3","Beaver","<p>winter</p>","null","","",""
"","null","html-keyboard-response","78","2.0.0","188000","pfv4lc5tqk3","Beaver","<h3>List 4 </h3>","null","","",""
"","null","html-keyboard-response","79","2.0.0","189010","pfv4lc5tqk3","Beaver","<div style=""font-size:60px;"">+</div>","null","","",""
"","null","html-keyboard-response","80","2.0.0","190526","pfv4lc5tqk3","Beaver","<p>death</p>","null","","",""
"","null","html-keyboard-response","81","2.0.0","191530","pfv4lc5tqk3","Beaver","<div style=""font-size:60px;"">+</div>","null","","",""
"","null","html-keyboard-response","82","2.0.0","193035","pfv4lc5tqk3","Beaver","<p>blue</p>","null","","",""
"","null","html-keyboard-response","83","2.0.0","194045","pfv4lc5tqk3","Beaver","<div style=""font-size:60px;"">+</div>","null","","",""
"","null","html-keyboard-response","84","2.0.0","195555","pfv4lc5tqk3","Beaver","<p>bottom</p>","null","","",""
"","null","html-keyboard-response","85","2.0.0","196568","pfv4lc5tqk3","Beaver","<div style=""font-size:60px;"">+</div>","null","","",""
"","null","html-keyboard-response","86","2.0.0","198080","pfv4lc5tqk3","Beaver","<p>charred</p>","null","","",""
"","null","html-keyboard-response","87","2.0.0","199084","pfv4lc5tqk3","Beaver","<div style=""font-size:60px;"">+</div>","null","","",""
"","null","html-keyboard-response","88","2.0.0","200591","pfv4lc5tqk3","Beaver","<p>white</p>","null","","",""
"","null","html-keyboard-response","89","2.0.0","201595","pfv4lc5tqk3","Beaver","<div style=""font-size:60px;"">+</div>","null","","",""
"","null","html-keyboard-response","90","2.0.0","203101","pfv4lc5tqk3","Beaver","<p>cat</p>","null","","",""
"","null","html-keyboard-response","91","2.0.0","204108","pfv4lc5tqk3","Beaver","<div style=""font-size:60px;"">+</div>","null","","",""
"","null","html-keyboard-response","92","2.0.0","205610","pfv4lc5tqk3","Beaver","<p>night</p>","null","","",""
"","null","html-keyboard-response","93","2.0.0","206619","pfv4lc5tqk3","Beaver","<div style=""font-size:60px;"">+</div>","null","","",""
"","null","html-keyboard-response","94","2.0.0","208125","pfv4lc5tqk3","Beaver","<p>ink</p>","null","","",""
"","null","html-keyboard-response","95","2.0.0","209129","pfv4lc5tqk3","Beaver","<div style=""font-size:60px;"">+</div>","null","","",""
"","null","html-keyboard-response","96","2.0.0","210637","pfv4lc5tqk3","Beaver","<p>dark</p>","null","","",""
"","null","html-keyboard-response","97","2.0.0","211647","pfv4lc5tqk3","Beaver","<div style=""font-size:60px;"">+</div>","null","","",""
"","null","html-keyboard-response","98","2.0.0","213163","pfv4lc5tqk3","Beaver","<p>color</p>","null","","",""
"","null","html-keyboard-response","99","2.0.0","214174","pfv4lc5tqk3","Beaver","<div style=""font-size:60px;"">+</div>","null","","",""
"","null","html-keyboard-response","100","2.0.0","215680","pfv4lc5tqk3","Beaver","<p>grief</p>","null","","",""
"","null","html-keyboard-response","101","2.0.0","216686","pfv4lc5tqk3","Beaver","<div style=""font-size:60px;"">+</div>","null","","",""
"","null","html-keyboard-response","102","2.0.0","218195","pfv4lc5tqk3","Beaver","<p>funeral</p>","null","","",""
"","null","html-keyboard-response","103","2.0.0","220200","pfv4lc5tqk3","Beaver","<h3>List 5 </h3>","null","","",""
"","null","html-keyboard-response","104","2.0.0","221206","pfv4lc5tqk3","Beaver","<div style=""font-size:60px;"">+</div>","null","","",""
"","null","html-keyboard-response","105","2.0.0","222721","pfv4lc5tqk3","Beaver","<p>mad</p>","null","","",""
"","null","html-keyboard-response","106","2.0.0","223724","pfv4lc5tqk3","Beaver","<div style=""font-size:60px;"">+</div>","null","","",""
"","null","html-keyboard-response","107","2.0.0","225238","pfv4lc5tqk3","Beaver","<p>mean</p>","null","","",""
"","null","html-keyboard-response","108","2.0.0","226242","pfv4lc5tqk3","Beaver","<div style=""font-size:60px;"">+</div>","null","","",""
"","null","html-keyboard-response","109","2.0.0","227746","pfv4lc5tqk3","Beaver","<p>hatred</p>","null","","",""
"","null","html-keyboard-response","110","2.0.0","228751","pfv4lc5tqk3","Beaver","<div style=""font-size:60px;"">+</div>","null","","",""
"","null","html-keyboard-response","111","2.0.0","230259","pfv4lc5tqk3","Beaver","<p>rage</p>","null","","",""
"","null","html-keyboard-response","112","2.0.0","231264","pfv4lc5tqk3","Beaver","<div style=""font-size:60px;"">+</div>","null","","",""
"","null","html-keyboard-response","113","2.0.0","232775","pfv4lc5tqk3","Beaver","<p>fear</p>","null","","",""
"","null","html-keyboard-response","114","2.0.0","233784","pfv4lc5tqk3","Beaver","<div style=""font-size:60px;"">+</div>","null","","",""
"","null","html-keyboard-response","115","2.0.0","235290","pfv4lc5tqk3","Beaver","<p>ire</p>","null","","",""
"","null","html-keyboard-response","116","2.0.0","236300","pfv4lc5tqk3","Beaver","<div style=""font-size:60px;"">+</div>","null","","",""
"","null","html-keyboard-response","117","2.0.0","237805","pfv4lc5tqk3","Beaver","<p>temper</p>","null","","",""
"","null","html-keyboard-response","118","2.0.0","238814","pfv4lc5tqk3","Beaver","<div style=""font-size:60px;"">+</div>","null","","",""
"","null","html-keyboard-response","119","2.0.0","240319","pfv4lc5tqk3","Beaver","<p>happy</p>","null","","",""
"","null","html-keyboard-response","120","2.0.0","241337","pfv4lc5tqk3","Beaver","<div style=""font-size:60px;"">+</div>","null","","",""
"","null","html-keyboard-response","121","2.0.0","242845","pfv4lc5tqk3","Beaver","<p>wrath</p>","null","","",""
"","null","html-keyboard-response","122","2.0.0","243847","pfv4lc5tqk3","Beaver","<div style=""font-size:60px;"">+</div>","null","","",""
"","null","html-keyboard-response","123","2.0.0","245354","pfv4lc5tqk3","Beaver","<p>hate</p>","null","","",""
"","null","html-keyboard-response","124","2.0.0","246361","pfv4lc5tqk3","Beaver","<div style=""font-size:60px;"">+</div>","null","","",""
"","null","html-keyboard-response","125","2.0.0","247867","pfv4lc5tqk3","Beaver","<p>fury</p>","null","","",""
"","null","html-keyboard-response","126","2.0.0","248877","pfv4lc5tqk3","Beaver","<div style=""font-size:60px;"">+</div>","null","","",""
"","null","html-keyboard-response","127","2.0.0","250386","pfv4lc5tqk3","Beaver","<p>fight</p>","null","","",""
"","null","html-keyboard-response","128","2.0.0","252388","pfv4lc5tqk3","Beaver","<h3>List 6 </h3>","null","","",""
"","null","html-keyboard-response","129","2.0.0","253396","pfv4lc5tqk3","Beaver","<div style=""font-size:60px;"">+</div>","null","","",""
"","null","html-keyboard-response","130","2.0.0","254900","pfv4lc5tqk3","Beaver","<p>nurse</p>","null","","",""
"","null","html-keyboard-response","131","2.0.0","255915","pfv4lc5tqk3","Beaver","<div style=""font-size:60px;"">+</div>","null","","",""
"","null","html-keyboard-response","132","2.0.0","257420","pfv4lc5tqk3","Beaver","<p>office</p>","null","","",""
"","null","html-keyboard-response","133","2.0.0","258436","pfv4lc5tqk3","Beaver","<div style=""font-size:60px;"">+</div>","null","","",""
"","null","html-keyboard-response","134","2.0.0","259939","pfv4lc5tqk3","Beaver","<p>hospital</p>","null","","",""
"","null","html-keyboard-response","135","2.0.0","260945","pfv4lc5tqk3","Beaver","<div style=""font-size:60px;"">+</div>","null","","",""
"","null","html-keyboard-response","136","2.0.0","262453","pfv4lc5tqk3","Beaver","<p>lawyer</p>","null","","",""
"","null","html-keyboard-response","137","2.0.0","263458","pfv4lc5tqk3","Beaver","<div style=""font-size:60px;"">+</div>","null","","",""
"","null","html-keyboard-response","138","2.0.0","264963","pfv4lc5tqk3","Beaver","<p>medicine</p>","null","","",""
"","null","html-keyboard-response","139","2.0.0","265965","pfv4lc5tqk3","Beaver","<div style=""font-size:60px;"">+</div>","null","","",""
"","null","html-keyboard-response","140","2.0.0","267475","pfv4lc5tqk3","Beaver","<p>physician</p>","null","","",""
"","null","html-keyboard-response","141","2.0.0","268485","pfv4lc5tqk3","Beaver","<div style=""font-size:60px;"">+</div>","null","","",""
"","null","html-keyboard-response","142","2.0.0","269993","pfv4lc5tqk3","Beaver","<p>dentist</p>","null","","",""
"","null","html-keyboard-response","143","2.0.0","271001","pfv4lc5tqk3","Beaver","<div style=""font-size:60px;"">+</div>","null","","",""
"","null","html-keyboard-response","144","2.0.0","272504","pfv4lc5tqk3","Beaver","<p>stethoscope</p>","null","","",""
"","null","html-keyboard-response","145","2.0.0","273516","pfv4lc5tqk3","Beaver","<div style=""font-size:60px;"">+</div>","null","","",""
"","null","html-keyboard-response","146","2.0.0","275019","pfv4lc5tqk3","Beaver","<p>ill</p>","null","","",""
"","null","html-keyboard-response","147","2.0.0","276024","pfv4lc5tqk3","Beaver","<div style=""font-size:60px;"">+</div>","null","","",""
"","null","html-keyboard-response","148","2.0.0","277525","pfv4lc5tqk3","Beaver","<p>sick</p>","null","","",""
"","null","html-keyboard-response","149","2.0.0","278536","pfv4lc5tqk3","Beaver","<div style=""font-size:60px;"">+</div>","null","","",""
"","null","html-keyboard-response","150","2.0.0","280039","pfv4lc5tqk3","Beaver","<p>patient</p>","null","","",""
"","null","html-keyboard-response","151","2.0.0","281055","pfv4lc5tqk3","Beaver","<div style=""font-size:60px;"">+</div>","null","","",""
"","null","html-keyboard-response","152","2.0.0","282566","pfv4lc5tqk3","Beaver","<p>health</p>","null","","",""
"","5359","html-keyboard-response","153","2.0.0","287926","pfv4lc5tqk3","Beaver","Now you will rate your confidence that each word occurred on the list. <p>Please indicate whether you think the word was definitely new, probably new, probably old, or definitely old.</p> <p>Press any key to continue.</P>"," ","","",""
"","6979","survey-likert","154","null","294911","pfv4lc5tqk3","Beaver","","{""Q0"":2}","curtain","recognition","[0]"
"","6230","survey-likert","155","null","301143","pfv4lc5tqk3","Beaver","","{""Q0"":3}","doctor","recognition","[0]"
"","3186","survey-likert","156","null","304332","pfv4lc5tqk3","Beaver","","{""Q0"":2}","noise","recognition","[0]"
"","6976","survey-likert","157","null","311310","pfv4lc5tqk3","Beaver","","{""Q0"":0}","grief","recognition","[0]"
"","3358","survey-likert","158","null","314671","pfv4lc5tqk3","Beaver","","{""Q0"":0}","anger","recognition","[0]"
"","6130","survey-likert","159","null","320804","pfv4lc5tqk3","Beaver","","{""Q0"":2}","window","recognition","[0]"
"","3087","survey-likert","160","null","323894","pfv4lc5tqk3","Beaver","","{""Q0"":1}","health","recognition","[0]"
"","2606","survey-likert","161","null","326502","pfv4lc5tqk3","Beaver","","{""Q0"":0}","nurse","recognition","[0]"
"","2471","survey-likert","162","null","328976","pfv4lc5tqk3","Beaver","","{""Q0"":2}","mountain","recognition","[0]"
"","3262","survey-likert","163","null","332240","pfv4lc5tqk3","Beaver","","{""Q0"":0}","sit","recognition","[0]"
"","2744","survey-likert","164","null","334987","pfv4lc5tqk3","Beaver","","{""Q0"":3}","void","recognition","[0]"
"","2886","survey-likert","165","null","337876","pfv4lc5tqk3","Beaver","","{""Q0"":1}","wrath","recognition","[0]"
"","2535","survey-likert","166","null","340414","pfv4lc5tqk3","Beaver","","{""Q0"":0}","blue","recognition","[0]"
"","2381","survey-likert","167","null","342797","pfv4lc5tqk3","Beaver","","{""Q0"":0}","conflict","recognition","[0]"
"","2367","survey-likert","168","null","345166","pfv4lc5tqk3","Beaver","","{""Q0"":1}","balloon","recognition","[0]"
"","3278","survey-likert","169","null","348447","pfv4lc5tqk3","Beaver","","{""Q0"":2}","balance","recognition","[0]"
"","2941","survey-likert","170","null","351391","pfv4lc5tqk3","Beaver","","{""Q0"":0}","chilly","recognition","[0]"
"","4087","survey-likert","171","null","355481","pfv4lc5tqk3","Beaver","","{""Q0"":2}","elephant","recognition","[0]"
"","2067","survey-likert","172","null","357551","pfv4lc5tqk3","Beaver","","{""Q0"":2}","guitar","recognition","[0]"
"","2034","survey-likert","173","null","359587","pfv4lc5tqk3","Beaver","","{""Q0"":1}","chair","recognition","[0]"
"","2487","survey-likert","174","null","362076","pfv4lc5tqk3","Beaver","","{""Q0"":2}","black","recognition","[0]"
"","5622","survey-likert","175","null","367702","pfv4lc5tqk3","Beaver","","{""Q0"":1}","basket","recognition","[0]"
"","2493","survey-likert","176","null","370197","pfv4lc5tqk3","Beaver","","{""Q0"":2}","oven","recognition","[0]"
"","2399","survey-likert","177","null","372598","pfv4lc5tqk3","Beaver","","{""Q0"":2}","camera","recognition","[0]"
"","4462","survey-likert","178","null","377063","pfv4lc5tqk3","Beaver","","{""Q0"":3}","lighthouse","recognition","[0]"
"","3391","survey-likert","179","null","380456","pfv4lc5tqk3","Beaver","","{""Q0"":2}","laptop","recognition","[0]"
"","2991","survey-likert","180","null","383450","pfv4lc5tqk3","Beaver","","{""Q0"":2}","frame","recognition","[0]"
"","2614","survey-likert","181","null","386066","pfv4lc5tqk3","Beaver","","{""Q0"":0}","recliner","recognition","[0]"
"","2865","survey-likert","182","null","388934","pfv4lc5tqk3","Beaver","","{""Q0"":0}","wet","recognition","[0]"
"","6434","survey-likert","183","null","395371","pfv4lc5tqk3","Beaver","","{""Q0"":1}","book","recognition","[0]"
"","3604","survey-likert","184","null","398977","pfv4lc5tqk3","Beaver","","{""Q0"":0}","sandwich","recognition","[0]"
"","3227","survey-likert","185","null","402206","pfv4lc5tqk3","Beaver","","{""Q0"":3}","clock","recognition","[0]"
"","4303","survey-likert","186","null","406512","pfv4lc5tqk3","Beaver","","{""Q0"":2}","bread","recognition","[0]"
"","2545","survey-likert","187","null","409059","pfv4lc5tqk3","Beaver","","{""Q0"":1}","cold","recognition","[0]"
"","2450","survey-likert","188","null","411510","pfv4lc5tqk3","Beaver","","{""Q0"":1}","river","recognition","[0]"
"","2607","survey-likert","189","null","414119","pfv4lc5tqk3","Beaver","","{""Q0"":3}","attention","recognition","[0]"
"","2736","survey-likert","190","null","416858","pfv4lc5tqk3","Beaver","","{""Q0"":1}","procedure","recognition","[0]"
"","3370","survey-likert","191","null","420230","pfv4lc5tqk3","Beaver","","{""Q0"":3}","planet","recognition","[0]"
"","2845","survey-likert","192","null","423078","pfv4lc5tqk3","Beaver","","{""Q0"":2}","flour","recognition","[0]"
"","2746","survey-likert","193","null","425826","pfv4lc5tqk3","Beaver","","{""Q0"":2}","drift","recognition","[0]"
"","2445","survey-likert","194","null","428274","pfv4lc5tqk3","Beaver","","{""Q0"":0}","hatred","recognition","[0]"
"","2998","survey-likert","195","null","431274","pfv4lc5tqk3","Beaver","","{""Q0"":1}","shade","recognition","[0]"
"","39725","survey-text","196","2.0.0","471023","pfv4lc5tqk3","Beaver","","{""age"":""22"",""gender"":""Female"",""Q2"":""To try to remember the words shown and mentioned through active recall. "",""Q3"":""N/A""}","","",""
