"success","rt","trial_type","trial_index","plugin_version","time_elapsed","random_id","participant","stimulus","response","word","type","question_order"
"true","2429","fullscreen","0","null","3441","pjho8qfughu","otter","","","","",""
"","21843","html-keyboard-response","1","2.0.0","25288","pjho8qfughu","otter","Welcome to the Fasle Recall Experiment.<p>You will see and listen to 6 lists of 12-words one at a time. Try to remember as many as you can.</p><p>After the list, you’ll be asked to complete a recognition test.</p><p>Press any key to begin.</p>","h","","",""
"","5005","survey-text","2","2.0.0","30313","pjho8qfughu","otter","","{""participant_id"":""otter""}","","",""
"","null","html-keyboard-response","3","2.0.0","32315","pjho8qfughu","otter","<h3>List 1 </h3>","null","","",""
"","null","html-keyboard-response","4","2.0.0","33318","pjho8qfughu","otter","<div style=""font-size:60px;"">+</div>","null","","",""
"","null","html-keyboard-response","5","2.0.0","34820","pjho8qfughu","otter","<p>winter</p>","null","","",""
"","null","html-keyboard-response","6","2.0.0","35823","pjho8qfughu","otter","<div style=""font-size:60px;"">+</div>","null","","",""
"","null","html-keyboard-response","7","2.0.0","37326","pjho8qfughu","otter","<p>weather</p>","null","","",""
"","null","html-keyboard-response","8","2.0.0","38329","pjho8qfughu","otter","<div style=""font-size:60px;"">+</div>","null","","",""
"","null","html-keyboard-response","9","2.0.0","39833","pjho8qfughu","otter","<p>warm</p>","null","","",""
"","null","html-keyboard-response","10","2.0.0","40837","pjho8qfughu","otter","<div style=""font-size:60px;"">+</div>","null","","",""
"","null","html-keyboard-response","11","2.0.0","42340","pjho8qfughu","otter","<p>chilly</p>","null","","",""
"","null","html-keyboard-response","12","2.0.0","43343","pjho8qfughu","otter","<div style=""font-size:60px;"">+</div>","null","","",""
"","null","html-keyboard-response","13","2.0.0","44847","pjho8qfughu","otter","<p>frigid</p>","null","","",""
"","null","html-keyboard-response","14","2.0.0","45850","pjho8qfughu","otter","<div style=""font-size:60px;"">+</div>","null","","",""
"","null","html-keyboard-response","15","2.0.0","47352","pjho8qfughu","otter","<p>air</p>","null","","",""
"","null","html-keyboard-response","16","2.0.0","48356","pjho8qfughu","otter","<div style=""font-size:60px;"">+</div>","null","","",""
"","null","html-keyboard-response","17","2.0.0","49859","pjho8qfughu","otter","<p>freeze</p>","null","","",""
"","null","html-keyboard-response","18","2.0.0","50863","pjho8qfughu","otter","<div style=""font-size:60px;"">+</div>","null","","",""
"","null","html-keyboard-response","19","2.0.0","52366","pjho8qfughu","otter","<p>wet</p>","null","","",""
"","null","html-keyboard-response","20","2.0.0","53369","pjho8qfughu","otter","<div style=""font-size:60px;"">+</div>","null","","",""
"","null","html-keyboard-response","21","2.0.0","54873","pjho8qfughu","otter","<p>ice</p>","null","","",""
"","null","html-keyboard-response","22","2.0.0","55876","pjho8qfughu","otter","<div style=""font-size:60px;"">+</div>","null","","",""
"","null","html-keyboard-response","23","2.0.0","57380","pjho8qfughu","otter","<p>snow</p>","null","","",""
"","null","html-keyboard-response","24","2.0.0","58383","pjho8qfughu","otter","<div style=""font-size:60px;"">+</div>","null","","",""
"","null","html-keyboard-response","25","2.0.0","59886","pjho8qfughu","otter","<p>heat</p>","null","","",""
"","null","html-keyboard-response","26","2.0.0","60888","pjho8qfughu","otter","<div style=""font-size:60px;"">+</div>","null","","",""
"","null","html-keyboard-response","27","2.0.0","62391","pjho8qfughu","otter","<p>hot</p>","null","","",""
"","null","html-keyboard-response","28","2.0.0","64394","pjho8qfughu","otter","<h3>List 2 </h3>","null","","",""
"","null","html-keyboard-response","29","2.0.0","65397","pjho8qfughu","otter","<div style=""font-size:60px;"">+</div>","null","","",""
"","null","html-keyboard-response","30","2.0.0","66899","pjho8qfughu","otter","<p>rye</p>","null","","",""
"","null","html-keyboard-response","31","2.0.0","67902","pjho8qfughu","otter","<div style=""font-size:60px;"">+</div>","null","","",""
"","null","html-keyboard-response","32","2.0.0","69405","pjho8qfughu","otter","<p>sandwich</p>","null","","",""
"","null","html-keyboard-response","33","2.0.0","70409","pjho8qfughu","otter","<div style=""font-size:60px;"">+</div>","null","","",""
"","null","html-keyboard-response","34","2.0.0","71913","pjho8qfughu","otter","<p>slice</p>","null","","",""
"","null","html-keyboard-response","35","2.0.0","72916","pjho8qfughu","otter","<div style=""font-size:60px;"">+</div>","null","","",""
"","null","html-keyboard-response","36","2.0.0","74418","pjho8qfughu","otter","<p>food</p>","null","","",""
"","null","html-keyboard-response","37","2.0.0","75421","pjho8qfughu","otter","<div style=""font-size:60px;"">+</div>","null","","",""
"","null","html-keyboard-response","38","2.0.0","76925","pjho8qfughu","otter","<p>eat</p>","null","","",""
"","null","html-keyboard-response","39","2.0.0","77928","pjho8qfughu","otter","<div style=""font-size:60px;"">+</div>","null","","",""
"","null","html-keyboard-response","40","2.0.0","79432","pjho8qfughu","otter","<p>dough</p>","null","","",""
"","null","html-keyboard-response","41","2.0.0","80436","pjho8qfughu","otter","<div style=""font-size:60px;"">+</div>","null","","",""
"","null","html-keyboard-response","42","2.0.0","81939","pjho8qfughu","otter","<p>flour</p>","null","","",""
"","null","html-keyboard-response","43","2.0.0","82942","pjho8qfughu","otter","<div style=""font-size:60px;"">+</div>","null","","",""
"","null","html-keyboard-response","44","2.0.0","84446","pjho8qfughu","otter","<p>jam</p>","null","","",""
"","null","html-keyboard-response","45","2.0.0","85449","pjho8qfughu","otter","<div style=""font-size:60px;"">+</div>","null","","",""
"","null","html-keyboard-response","46","2.0.0","86952","pjho8qfughu","otter","<p>milk</p>","null","","",""
"","null","html-keyboard-response","47","2.0.0","87955","pjho8qfughu","otter","<div style=""font-size:60px;"">+</div>","null","","",""
"","null","html-keyboard-response","48","2.0.0","89463","pjho8qfughu","otter","<p>jelly</p>","null","","",""
"","null","html-keyboard-response","49","2.0.0","90466","pjho8qfughu","otter","<div style=""font-size:60px;"">+</div>","null","","",""
"","null","html-keyboard-response","50","2.0.0","91969","pjho8qfughu","otter","<p>butter</p>","null","","",""
"","null","html-keyboard-response","51","2.0.0","92972","pjho8qfughu","otter","<div style=""font-size:60px;"">+</div>","null","","",""
"","null","html-keyboard-response","52","2.0.0","94476","pjho8qfughu","otter","<p>crust</p>","null","","",""
"","null","html-keyboard-response","53","2.0.0","96479","pjho8qfughu","otter","<h3>List 3 </h3>","null","","",""
"","null","html-keyboard-response","54","2.0.0","97482","pjho8qfughu","otter","<div style=""font-size:60px;"">+</div>","null","","",""
"","null","html-keyboard-response","55","2.0.0","98985","pjho8qfughu","otter","<p>legs</p>","null","","",""
"","null","html-keyboard-response","56","2.0.0","99988","pjho8qfughu","otter","<div style=""font-size:60px;"">+</div>","null","","",""
"","null","html-keyboard-response","57","2.0.0","101491","pjho8qfughu","otter","<p>recliner</p>","null","","",""
"","null","html-keyboard-response","58","2.0.0","102494","pjho8qfughu","otter","<div style=""font-size:60px;"">+</div>","null","","",""
"","null","html-keyboard-response","59","2.0.0","103997","pjho8qfughu","otter","<p>swivel</p>","null","","",""
"","null","html-keyboard-response","60","2.0.0","105000","pjho8qfughu","otter","<div style=""font-size:60px;"">+</div>","null","","",""
"","null","html-keyboard-response","61","2.0.0","106502","pjho8qfughu","otter","<p>seat</p>","null","","",""
"","null","html-keyboard-response","62","2.0.0","107506","pjho8qfughu","otter","<div style=""font-size:60px;"">+</div>","null","","",""
"","null","html-keyboard-response","63","2.0.0","109008","pjho8qfughu","otter","<p>stool</p>","null","","",""
"","null","html-keyboard-response","64","2.0.0","110011","pjho8qfughu","otter","<div style=""font-size:60px;"">+</div>","null","","",""
"","null","html-keyboard-response","65","2.0.0","111514","pjho8qfughu","otter","<p>cushion</p>","null","","",""
"","null","html-keyboard-response","66","2.0.0","112516","pjho8qfughu","otter","<div style=""font-size:60px;"">+</div>","null","","",""
"","null","html-keyboard-response","67","2.0.0","114019","pjho8qfughu","otter","<p>wood</p>","null","","",""
"","null","html-keyboard-response","68","2.0.0","115022","pjho8qfughu","otter","<div style=""font-size:60px;"">+</div>","null","","",""
"","null","html-keyboard-response","69","2.0.0","116525","pjho8qfughu","otter","<p>sofa</p>","null","","",""
"","null","html-keyboard-response","70","2.0.0","117528","pjho8qfughu","otter","<div style=""font-size:60px;"">+</div>","null","","",""
"","null","html-keyboard-response","71","2.0.0","119030","pjho8qfughu","otter","<p>couch</p>","null","","",""
"","null","html-keyboard-response","72","2.0.0","120034","pjho8qfughu","otter","<div style=""font-size:60px;"">+</div>","null","","",""
"","null","html-keyboard-response","73","2.0.0","121536","pjho8qfughu","otter","<p>desk</p>","null","","",""
"","null","html-keyboard-response","74","2.0.0","122540","pjho8qfughu","otter","<div style=""font-size:60px;"">+</div>","null","","",""
"","null","html-keyboard-response","75","2.0.0","124042","pjho8qfughu","otter","<p>sit</p>","null","","",""
"","null","html-keyboard-response","76","2.0.0","125046","pjho8qfughu","otter","<div style=""font-size:60px;"">+</div>","null","","",""
"","null","html-keyboard-response","77","2.0.0","126550","pjho8qfughu","otter","<p>table</p>","null","","",""
"","null","html-keyboard-response","78","2.0.0","128553","pjho8qfughu","otter","<h3>List 4 </h3>","null","","",""
"","null","html-keyboard-response","79","2.0.0","129556","pjho8qfughu","otter","<div style=""font-size:60px;"">+</div>","null","","",""
"","null","html-keyboard-response","80","2.0.0","131058","pjho8qfughu","otter","<p>mad</p>","null","","",""
"","null","html-keyboard-response","81","2.0.0","132061","pjho8qfughu","otter","<div style=""font-size:60px;"">+</div>","null","","",""
"","null","html-keyboard-response","82","2.0.0","133564","pjho8qfughu","otter","<p>mean</p>","null","","",""
"","null","html-keyboard-response","83","2.0.0","134567","pjho8qfughu","otter","<div style=""font-size:60px;"">+</div>","null","","",""
"","null","html-keyboard-response","84","2.0.0","136069","pjho8qfughu","otter","<p>fear</p>","null","","",""
"","null","html-keyboard-response","85","2.0.0","137072","pjho8qfughu","otter","<div style=""font-size:60px;"">+</div>","null","","",""
"","null","html-keyboard-response","86","2.0.0","138575","pjho8qfughu","otter","<p>hate</p>","null","","",""
"","null","html-keyboard-response","87","2.0.0","139578","pjho8qfughu","otter","<div style=""font-size:60px;"">+</div>","null","","",""
"","null","html-keyboard-response","88","2.0.0","141081","pjho8qfughu","otter","<p>fight</p>","null","","",""
"","null","html-keyboard-response","89","2.0.0","142084","pjho8qfughu","otter","<div style=""font-size:60px;"">+</div>","null","","",""
"","null","html-keyboard-response","90","2.0.0","143586","pjho8qfughu","otter","<p>hatred</p>","null","","",""
"","null","html-keyboard-response","91","2.0.0","144589","pjho8qfughu","otter","<div style=""font-size:60px;"">+</div>","null","","",""
"","null","html-keyboard-response","92","2.0.0","146091","pjho8qfughu","otter","<p>temper</p>","null","","",""
"","null","html-keyboard-response","93","2.0.0","147094","pjho8qfughu","otter","<div style=""font-size:60px;"">+</div>","null","","",""
"","null","html-keyboard-response","94","2.0.0","148597","pjho8qfughu","otter","<p>fury</p>","null","","",""
"","null","html-keyboard-response","95","2.0.0","149600","pjho8qfughu","otter","<div style=""font-size:60px;"">+</div>","null","","",""
"","null","html-keyboard-response","96","2.0.0","151103","pjho8qfughu","otter","<p>happy</p>","null","","",""
"","null","html-keyboard-response","97","2.0.0","152105","pjho8qfughu","otter","<div style=""font-size:60px;"">+</div>","null","","",""
"","null","html-keyboard-response","98","2.0.0","153608","pjho8qfughu","otter","<p>rage</p>","null","","",""
"","null","html-keyboard-response","99","2.0.0","154610","pjho8qfughu","otter","<div style=""font-size:60px;"">+</div>","null","","",""
"","null","html-keyboard-response","100","2.0.0","156113","pjho8qfughu","otter","<p>ire</p>","null","","",""
"","null","html-keyboard-response","101","2.0.0","157117","pjho8qfughu","otter","<div style=""font-size:60px;"">+</div>","null","","",""
"","null","html-keyboard-response","102","2.0.0","158619","pjho8qfughu","otter","<p>wrath</p>","null","","",""
"","null","html-keyboard-response","103","2.0.0","160622","pjho8qfughu","otter","<h3>List 5 </h3>","null","","",""
"","null","html-keyboard-response","104","2.0.0","161624","pjho8qfughu","otter","<div style=""font-size:60px;"">+</div>","null","","",""
"","null","html-keyboard-response","105","2.0.0","163127","pjho8qfughu","otter","<p>white</p>","null","","",""
"","null","html-keyboard-response","106","2.0.0","164130","pjho8qfughu","otter","<div style=""font-size:60px;"">+</div>","null","","",""
"","null","html-keyboard-response","107","2.0.0","165632","pjho8qfughu","otter","<p>grief</p>","null","","",""
"","null","html-keyboard-response","108","2.0.0","166635","pjho8qfughu","otter","<div style=""font-size:60px;"">+</div>","null","","",""
"","null","html-keyboard-response","109","2.0.0","168138","pjho8qfughu","otter","<p>funeral</p>","null","","",""
"","null","html-keyboard-response","110","2.0.0","169141","pjho8qfughu","otter","<div style=""font-size:60px;"">+</div>","null","","",""
"","null","html-keyboard-response","111","2.0.0","170644","pjho8qfughu","otter","<p>color</p>","null","","",""
"","null","html-keyboard-response","112","2.0.0","171647","pjho8qfughu","otter","<div style=""font-size:60px;"">+</div>","null","","",""
"","null","html-keyboard-response","113","2.0.0","173149","pjho8qfughu","otter","<p>ink</p>","null","","",""
"","null","html-keyboard-response","114","2.0.0","174152","pjho8qfughu","otter","<div style=""font-size:60px;"">+</div>","null","","",""
"","null","html-keyboard-response","115","2.0.0","175655","pjho8qfughu","otter","<p>dark</p>","null","","",""
"","null","html-keyboard-response","116","2.0.0","176658","pjho8qfughu","otter","<div style=""font-size:60px;"">+</div>","null","","",""
"","null","html-keyboard-response","117","2.0.0","178161","pjho8qfughu","otter","<p>bottom</p>","null","","",""
"","null","html-keyboard-response","118","2.0.0","179163","pjho8qfughu","otter","<div style=""font-size:60px;"">+</div>","null","","",""
"","null","html-keyboard-response","119","2.0.0","180666","pjho8qfughu","otter","<p>night</p>","null","","",""
"","null","html-keyboard-response","120","2.0.0","181669","pjho8qfughu","otter","<div style=""font-size:60px;"">+</div>","null","","",""
"","null","html-keyboard-response","121","2.0.0","183170","pjho8qfughu","otter","<p>cat</p>","null","","",""
"","null","html-keyboard-response","122","2.0.0","184172","pjho8qfughu","otter","<div style=""font-size:60px;"">+</div>","null","","",""
"","null","html-keyboard-response","123","2.0.0","185675","pjho8qfughu","otter","<p>charred</p>","null","","",""
"","null","html-keyboard-response","124","2.0.0","186677","pjho8qfughu","otter","<div style=""font-size:60px;"">+</div>","null","","",""
"","null","html-keyboard-response","125","2.0.0","188180","pjho8qfughu","otter","<p>blue</p>","null","","",""
"","null","html-keyboard-response","126","2.0.0","189183","pjho8qfughu","otter","<div style=""font-size:60px;"">+</div>","null","","",""
"","null","html-keyboard-response","127","2.0.0","190684","pjho8qfughu","otter","<p>death</p>","null","","",""
"","null","html-keyboard-response","128","2.0.0","192687","pjho8qfughu","otter","<h3>List 6 </h3>","null","","",""
"","null","html-keyboard-response","129","2.0.0","193690","pjho8qfughu","otter","<div style=""font-size:60px;"">+</div>","null","","",""
"","null","html-keyboard-response","130","2.0.0","195193","pjho8qfughu","otter","<p>nurse</p>","null","","",""
"","null","html-keyboard-response","131","2.0.0","196196","pjho8qfughu","otter","<div style=""font-size:60px;"">+</div>","null","","",""
"","null","html-keyboard-response","132","2.0.0","197698","pjho8qfughu","otter","<p>physician</p>","null","","",""
"","null","html-keyboard-response","133","2.0.0","198701","pjho8qfughu","otter","<div style=""font-size:60px;"">+</div>","null","","",""
"","null","html-keyboard-response","134","2.0.0","200204","pjho8qfughu","otter","<p>patient</p>","null","","",""
"","null","html-keyboard-response","135","2.0.0","201207","pjho8qfughu","otter","<div style=""font-size:60px;"">+</div>","null","","",""
"","null","html-keyboard-response","136","2.0.0","202710","pjho8qfughu","otter","<p>medicine</p>","null","","",""
"","null","html-keyboard-response","137","2.0.0","203713","pjho8qfughu","otter","<div style=""font-size:60px;"">+</div>","null","","",""
"","null","html-keyboard-response","138","2.0.0","205216","pjho8qfughu","otter","<p>health</p>","null","","",""
"","null","html-keyboard-response","139","2.0.0","206219","pjho8qfughu","otter","<div style=""font-size:60px;"">+</div>","null","","",""
"","null","html-keyboard-response","140","2.0.0","207722","pjho8qfughu","otter","<p>office</p>","null","","",""
"","null","html-keyboard-response","141","2.0.0","208725","pjho8qfughu","otter","<div style=""font-size:60px;"">+</div>","null","","",""
"","null","html-keyboard-response","142","2.0.0","210228","pjho8qfughu","otter","<p>dentist</p>","null","","",""
"","null","html-keyboard-response","143","2.0.0","211231","pjho8qfughu","otter","<div style=""font-size:60px;"">+</div>","null","","",""
"","null","html-keyboard-response","144","2.0.0","212734","pjho8qfughu","otter","<p>stethoscope</p>","null","","",""
"","null","html-keyboard-response","145","2.0.0","213737","pjho8qfughu","otter","<div style=""font-size:60px;"">+</div>","null","","",""
"","null","html-keyboard-response","146","2.0.0","215239","pjho8qfughu","otter","<p>ill</p>","null","","",""
"","null","html-keyboard-response","147","2.0.0","216242","pjho8qfughu","otter","<div style=""font-size:60px;"">+</div>","null","","",""
"","null","html-keyboard-response","148","2.0.0","217745","pjho8qfughu","otter","<p>sick</p>","null","","",""
"","null","html-keyboard-response","149","2.0.0","218747","pjho8qfughu","otter","<div style=""font-size:60px;"">+</div>","null","","",""
"","null","html-keyboard-response","150","2.0.0","220250","pjho8qfughu","otter","<p>lawyer</p>","null","","",""
"","null","html-keyboard-response","151","2.0.0","221253","pjho8qfughu","otter","<div style=""font-size:60px;"">+</div>","null","","",""
"","null","html-keyboard-response","152","2.0.0","222756","pjho8qfughu","otter","<p>hospital</p>","null","","",""
"","8614","html-keyboard-response","153","2.0.0","231373","pjho8qfughu","otter","Now you will rate your confidence that each word occurred on the list. <p>Please indicate whether you think the word was definitely new, probably new, probably old, or definitely old.</p> <p>Press any key to continue.</P>","h","","",""
"","9171","survey-likert","154","null","240549","pjho8qfughu","otter","","{""Q0"":2}","cold","recognition","[0]"
"","4062","survey-likert","155","null","244615","pjho8qfughu","otter","","{""Q0"":1}","laptop","recognition","[0]"
"","2096","survey-likert","156","null","246714","pjho8qfughu","otter","","{""Q0"":1}","doctor","recognition","[0]"
"","2163","survey-likert","157","null","248881","pjho8qfughu","otter","","{""Q0"":3}","ice","recognition","[0]"
"","2668","survey-likert","158","null","251552","pjho8qfughu","otter","","{""Q0"":2}","frame","recognition","[0]"
"","2098","survey-likert","159","null","253652","pjho8qfughu","otter","","{""Q0"":3}","hatred","recognition","[0]"
"","2246","survey-likert","160","null","255900","pjho8qfughu","otter","","{""Q0"":1}","mountain","recognition","[0]"
"","3128","survey-likert","161","null","259031","pjho8qfughu","otter","","{""Q0"":1}","black","recognition","[0]"
"","2118","survey-likert","162","null","261152","pjho8qfughu","otter","","{""Q0"":3}","funeral","recognition","[0]"
"","2328","survey-likert","163","null","263483","pjho8qfughu","otter","","{""Q0"":1}","noise","recognition","[0]"
"","1828","survey-likert","164","null","265314","pjho8qfughu","otter","","{""Q0"":1}","food","recognition","[0]"
"","2348","survey-likert","165","null","267664","pjho8qfughu","otter","","{""Q0"":1}","balance","recognition","[0]"
"","2196","survey-likert","166","null","269863","pjho8qfughu","otter","","{""Q0"":1}","lighthouse","recognition","[0]"
"","2003","survey-likert","167","null","271869","pjho8qfughu","otter","","{""Q0"":1}","oven","recognition","[0]"
"","1710","survey-likert","168","null","273582","pjho8qfughu","otter","","{""Q0"":1}","curtain","recognition","[0]"
"","2150","survey-likert","169","null","275735","pjho8qfughu","otter","","{""Q0"":3}","ill","recognition","[0]"
"","2265","survey-likert","170","null","278002","pjho8qfughu","otter","","{""Q0"":2}","book","recognition","[0]"
"","3393","survey-likert","171","null","281398","pjho8qfughu","otter","","{""Q0"":3}","recliner","recognition","[0]"
"","6717","survey-likert","172","null","288118","pjho8qfughu","otter","","{""Q0"":1}","chair","recognition","[0]"
"","1909","survey-likert","173","null","290029","pjho8qfughu","otter","","{""Q0"":1}","planet","recognition","[0]"
"","1449","survey-likert","174","null","291480","pjho8qfughu","otter","","{""Q0"":1}","clock","recognition","[0]"
"","1380","survey-likert","175","null","292863","pjho8qfughu","otter","","{""Q0"":1}","drift","recognition","[0]"
"","1934","survey-likert","176","null","294800","pjho8qfughu","otter","","{""Q0"":1}","guitar","recognition","[0]"
"","1329","survey-likert","177","null","296130","pjho8qfughu","otter","","{""Q0"":1}","sick","recognition","[0]"
"","2346","survey-likert","178","null","298480","pjho8qfughu","otter","","{""Q0"":1}","procedure","recognition","[0]"
"","1614","survey-likert","179","null","300097","pjho8qfughu","otter","","{""Q0"":1}","basket","recognition","[0]"
"","2066","survey-likert","180","null","302166","pjho8qfughu","otter","","{""Q0"":3}","color","recognition","[0]"
"","1713","survey-likert","181","null","303882","pjho8qfughu","otter","","{""Q0"":2}","river","recognition","[0]"
"","1897","survey-likert","182","null","305781","pjho8qfughu","otter","","{""Q0"":2}","window","recognition","[0]"
"","2850","survey-likert","183","null","308634","pjho8qfughu","otter","","{""Q0"":0}","void","recognition","[0]"
"","3560","survey-likert","184","null","312196","pjho8qfughu","otter","","{""Q0"":3}","swivel","recognition","[0]"
"","1980","survey-likert","185","null","314180","pjho8qfughu","otter","","{""Q0"":1}","attention","recognition","[0]"
"","2835","survey-likert","186","null","317017","pjho8qfughu","otter","","{""Q0"":1}","balloon","recognition","[0]"
"","1814","survey-likert","187","null","318833","pjho8qfughu","otter","","{""Q0"":3}","mean","recognition","[0]"
"","1543","survey-likert","188","null","320379","pjho8qfughu","otter","","{""Q0"":1}","camera","recognition","[0]"
"","1998","survey-likert","189","null","322380","pjho8qfughu","otter","","{""Q0"":2}","bread","recognition","[0]"
"","2684","survey-likert","190","null","325068","pjho8qfughu","otter","","{""Q0"":2}","shade","recognition","[0]"
"","1861","survey-likert","191","null","326931","pjho8qfughu","otter","","{""Q0"":1}","elephant","recognition","[0]"
"","1433","survey-likert","192","null","328367","pjho8qfughu","otter","","{""Q0"":1}","conflict","recognition","[0]"
"","2264","survey-likert","193","null","330633","pjho8qfughu","otter","","{""Q0"":1}","butter","recognition","[0]"
"","2281","survey-likert","194","null","332918","pjho8qfughu","otter","","{""Q0"":2}","anger","recognition","[0]"
"","1931","survey-likert","195","null","334851","pjho8qfughu","otter","","{""Q0"":3}","heat","recognition","[0]"
"","31850","survey-text","196","2.0.0","366714","pjho8qfughu","otter","","{""age"":""20"",""gender"":""Male"",""Q2"":""I think the purpose of this experiment was for us to see if we could recall the words in the list."",""Q3"":""Nope!""}","","",""
