"success","rt","trial_type","trial_index","plugin_version","time_elapsed","random_id","participant","stimulus","response","word","type","question_order"
"true","5061","fullscreen","0","null","6069","pkla5o2651l","heron","","","","",""
"","33582","html-keyboard-response","1","2.0.0","39652","pkla5o2651l","heron","Welcome to the Fasle Recall Experiment.<p>You will see and listen to 6 lists of 12-words one at a time. Try to remember as many as you can.</p><p>After the list, you’ll be asked to complete a recognition test.</p><p>Press any key to begin.</p>"," ","","",""
"","3845","survey-text","2","2.0.0","43499","pkla5o2651l","heron","","{""participant_id"":""heron""}","","",""
"","null","html-keyboard-response","3","2.0.0","45515","pkla5o2651l","heron","<h3>List 1 </h3>","null","","",""
"","null","html-keyboard-response","4","2.0.0","46529","pkla5o2651l","heron","<div style=""font-size:60px;"">+</div>","null","","",""
"","null","html-keyboard-response","5","2.0.0","48035","pkla5o2651l","heron","<p>mad</p>","null","","",""
"","null","html-keyboard-response","6","2.0.0","49045","pkla5o2651l","heron","<div style=""font-size:60px;"">+</div>","null","","",""
"","null","html-keyboard-response","7","2.0.0","50554","pkla5o2651l","heron","<p>rage</p>","null","","",""
"","null","html-keyboard-response","8","2.0.0","51570","pkla5o2651l","heron","<div style=""font-size:60px;"">+</div>","null","","",""
"","null","html-keyboard-response","9","2.0.0","53085","pkla5o2651l","heron","<p>hate</p>","null","","",""
"","null","html-keyboard-response","10","2.0.0","54086","pkla5o2651l","heron","<div style=""font-size:60px;"">+</div>","null","","",""
"","null","html-keyboard-response","11","2.0.0","55587","pkla5o2651l","heron","<p>fear</p>","null","","",""
"","null","html-keyboard-response","12","2.0.0","56589","pkla5o2651l","heron","<div style=""font-size:60px;"">+</div>","null","","",""
"","null","html-keyboard-response","13","2.0.0","58105","pkla5o2651l","heron","<p>fight</p>","null","","",""
"","null","html-keyboard-response","14","2.0.0","59119","pkla5o2651l","heron","<div style=""font-size:60px;"">+</div>","null","","",""
"","null","html-keyboard-response","15","2.0.0","60621","pkla5o2651l","heron","<p>mean</p>","null","","",""
"","null","html-keyboard-response","16","2.0.0","61630","pkla5o2651l","heron","<div style=""font-size:60px;"">+</div>","null","","",""
"","null","html-keyboard-response","17","2.0.0","63131","pkla5o2651l","heron","<p>happy</p>","null","","",""
"","null","html-keyboard-response","18","2.0.0","64133","pkla5o2651l","heron","<div style=""font-size:60px;"">+</div>","null","","",""
"","null","html-keyboard-response","19","2.0.0","65646","pkla5o2651l","heron","<p>temper</p>","null","","",""
"","null","html-keyboard-response","20","2.0.0","66662","pkla5o2651l","heron","<div style=""font-size:60px;"">+</div>","null","","",""
"","null","html-keyboard-response","21","2.0.0","68175","pkla5o2651l","heron","<p>fury</p>","null","","",""
"","null","html-keyboard-response","22","2.0.0","69189","pkla5o2651l","heron","<div style=""font-size:60px;"">+</div>","null","","",""
"","null","html-keyboard-response","23","2.0.0","70698","pkla5o2651l","heron","<p>ire</p>","null","","",""
"","null","html-keyboard-response","24","2.0.0","71702","pkla5o2651l","heron","<div style=""font-size:60px;"">+</div>","null","","",""
"","null","html-keyboard-response","25","2.0.0","73215","pkla5o2651l","heron","<p>wrath</p>","null","","",""
"","null","html-keyboard-response","26","2.0.0","74230","pkla5o2651l","heron","<div style=""font-size:60px;"">+</div>","null","","",""
"","null","html-keyboard-response","27","2.0.0","75741","pkla5o2651l","heron","<p>hatred</p>","null","","",""
"","null","html-keyboard-response","28","2.0.0","77753","pkla5o2651l","heron","<h3>List 2 </h3>","null","","",""
"","null","html-keyboard-response","29","2.0.0","78768","pkla5o2651l","heron","<div style=""font-size:60px;"">+</div>","null","","",""
"","null","html-keyboard-response","30","2.0.0","80281","pkla5o2651l","heron","<p>health</p>","null","","",""
"","null","html-keyboard-response","31","2.0.0","81283","pkla5o2651l","heron","<div style=""font-size:60px;"">+</div>","null","","",""
"","null","html-keyboard-response","32","2.0.0","82792","pkla5o2651l","heron","<p>hospital</p>","null","","",""
"","null","html-keyboard-response","33","2.0.0","83808","pkla5o2651l","heron","<div style=""font-size:60px;"">+</div>","null","","",""
"","null","html-keyboard-response","34","2.0.0","85323","pkla5o2651l","heron","<p>sick</p>","null","","",""
"","null","html-keyboard-response","35","2.0.0","86328","pkla5o2651l","heron","<div style=""font-size:60px;"">+</div>","null","","",""
"","null","html-keyboard-response","36","2.0.0","87843","pkla5o2651l","heron","<p>nurse</p>","null","","",""
"","null","html-keyboard-response","37","2.0.0","88845","pkla5o2651l","heron","<div style=""font-size:60px;"">+</div>","null","","",""
"","null","html-keyboard-response","38","2.0.0","90358","pkla5o2651l","heron","<p>medicine</p>","null","","",""
"","null","html-keyboard-response","39","2.0.0","91372","pkla5o2651l","heron","<div style=""font-size:60px;"">+</div>","null","","",""
"","null","html-keyboard-response","40","2.0.0","92887","pkla5o2651l","heron","<p>dentist</p>","null","","",""
"","null","html-keyboard-response","41","2.0.0","93890","pkla5o2651l","heron","<div style=""font-size:60px;"">+</div>","null","","",""
"","null","html-keyboard-response","42","2.0.0","95405","pkla5o2651l","heron","<p>lawyer</p>","null","","",""
"","null","html-keyboard-response","43","2.0.0","96420","pkla5o2651l","heron","<div style=""font-size:60px;"">+</div>","null","","",""
"","null","html-keyboard-response","44","2.0.0","97933","pkla5o2651l","heron","<p>physician</p>","null","","",""
"","null","html-keyboard-response","45","2.0.0","98937","pkla5o2651l","heron","<div style=""font-size:60px;"">+</div>","null","","",""
"","null","html-keyboard-response","46","2.0.0","100449","pkla5o2651l","heron","<p>office</p>","null","","",""
"","null","html-keyboard-response","47","2.0.0","101452","pkla5o2651l","heron","<div style=""font-size:60px;"">+</div>","null","","",""
"","null","html-keyboard-response","48","2.0.0","102964","pkla5o2651l","heron","<p>ill</p>","null","","",""
"","null","html-keyboard-response","49","2.0.0","103968","pkla5o2651l","heron","<div style=""font-size:60px;"">+</div>","null","","",""
"","null","html-keyboard-response","50","2.0.0","105484","pkla5o2651l","heron","<p>patient</p>","null","","",""
"","null","html-keyboard-response","51","2.0.0","106497","pkla5o2651l","heron","<div style=""font-size:60px;"">+</div>","null","","",""
"","null","html-keyboard-response","52","2.0.0","108008","pkla5o2651l","heron","<p>stethoscope</p>","null","","",""
"","null","html-keyboard-response","53","2.0.0","110010","pkla5o2651l","heron","<h3>List 3 </h3>","null","","",""
"","null","html-keyboard-response","54","2.0.0","111017","pkla5o2651l","heron","<div style=""font-size:60px;"">+</div>","null","","",""
"","null","html-keyboard-response","55","2.0.0","112529","pkla5o2651l","heron","<p>blue</p>","null","","",""
"","null","html-keyboard-response","56","2.0.0","113536","pkla5o2651l","heron","<div style=""font-size:60px;"">+</div>","null","","",""
"","null","html-keyboard-response","57","2.0.0","115047","pkla5o2651l","heron","<p>funeral</p>","null","","",""
"","null","html-keyboard-response","58","2.0.0","116054","pkla5o2651l","heron","<div style=""font-size:60px;"">+</div>","null","","",""
"","null","html-keyboard-response","59","2.0.0","117568","pkla5o2651l","heron","<p>charred</p>","null","","",""
"","null","html-keyboard-response","60","2.0.0","118584","pkla5o2651l","heron","<div style=""font-size:60px;"">+</div>","null","","",""
"","null","html-keyboard-response","61","2.0.0","120095","pkla5o2651l","heron","<p>color</p>","null","","",""
"","null","html-keyboard-response","62","2.0.0","121107","pkla5o2651l","heron","<div style=""font-size:60px;"">+</div>","null","","",""
"","null","html-keyboard-response","63","2.0.0","122610","pkla5o2651l","heron","<p>white</p>","null","","",""
"","null","html-keyboard-response","64","2.0.0","123624","pkla5o2651l","heron","<div style=""font-size:60px;"">+</div>","null","","",""
"","null","html-keyboard-response","65","2.0.0","125140","pkla5o2651l","heron","<p>death</p>","null","","",""
"","null","html-keyboard-response","66","2.0.0","126155","pkla5o2651l","heron","<div style=""font-size:60px;"">+</div>","null","","",""
"","null","html-keyboard-response","67","2.0.0","127668","pkla5o2651l","heron","<p>night</p>","null","","",""
"","null","html-keyboard-response","68","2.0.0","128670","pkla5o2651l","heron","<div style=""font-size:60px;"">+</div>","null","","",""
"","null","html-keyboard-response","69","2.0.0","130176","pkla5o2651l","heron","<p>ink</p>","null","","",""
"","null","html-keyboard-response","70","2.0.0","131178","pkla5o2651l","heron","<div style=""font-size:60px;"">+</div>","null","","",""
"","null","html-keyboard-response","71","2.0.0","132688","pkla5o2651l","heron","<p>grief</p>","null","","",""
"","null","html-keyboard-response","72","2.0.0","133701","pkla5o2651l","heron","<div style=""font-size:60px;"">+</div>","null","","",""
"","null","html-keyboard-response","73","2.0.0","135218","pkla5o2651l","heron","<p>bottom</p>","null","","",""
"","null","html-keyboard-response","74","2.0.0","136233","pkla5o2651l","heron","<div style=""font-size:60px;"">+</div>","null","","",""
"","null","html-keyboard-response","75","2.0.0","137744","pkla5o2651l","heron","<p>dark</p>","null","","",""
"","null","html-keyboard-response","76","2.0.0","138748","pkla5o2651l","heron","<div style=""font-size:60px;"">+</div>","null","","",""
"","null","html-keyboard-response","77","2.0.0","140261","pkla5o2651l","heron","<p>cat</p>","null","","",""
"","null","html-keyboard-response","78","2.0.0","142277","pkla5o2651l","heron","<h3>List 4 </h3>","null","","",""
"","null","html-keyboard-response","79","2.0.0","143280","pkla5o2651l","heron","<div style=""font-size:60px;"">+</div>","null","","",""
"","null","html-keyboard-response","80","2.0.0","144791","pkla5o2651l","heron","<p>sandwich</p>","null","","",""
"","null","html-keyboard-response","81","2.0.0","145806","pkla5o2651l","heron","<div style=""font-size:60px;"">+</div>","null","","",""
"","null","html-keyboard-response","82","2.0.0","147314","pkla5o2651l","heron","<p>eat</p>","null","","",""
"","null","html-keyboard-response","83","2.0.0","148316","pkla5o2651l","heron","<div style=""font-size:60px;"">+</div>","null","","",""
"","null","html-keyboard-response","84","2.0.0","149827","pkla5o2651l","heron","<p>dough</p>","null","","",""
"","null","html-keyboard-response","85","2.0.0","150833","pkla5o2651l","heron","<div style=""font-size:60px;"">+</div>","null","","",""
"","null","html-keyboard-response","86","2.0.0","152347","pkla5o2651l","heron","<p>food</p>","null","","",""
"","null","html-keyboard-response","87","2.0.0","153351","pkla5o2651l","heron","<div style=""font-size:60px;"">+</div>","null","","",""
"","null","html-keyboard-response","88","2.0.0","154853","pkla5o2651l","heron","<p>jelly</p>","null","","",""
"","null","html-keyboard-response","89","2.0.0","155870","pkla5o2651l","heron","<div style=""font-size:60px;"">+</div>","null","","",""
"","null","html-keyboard-response","90","2.0.0","157384","pkla5o2651l","heron","<p>milk</p>","null","","",""
"","null","html-keyboard-response","91","2.0.0","158397","pkla5o2651l","heron","<div style=""font-size:60px;"">+</div>","null","","",""
"","null","html-keyboard-response","92","2.0.0","159898","pkla5o2651l","heron","<p>crust</p>","null","","",""
"","null","html-keyboard-response","93","2.0.0","160913","pkla5o2651l","heron","<div style=""font-size:60px;"">+</div>","null","","",""
"","null","html-keyboard-response","94","2.0.0","162421","pkla5o2651l","heron","<p>slice</p>","null","","",""
"","null","html-keyboard-response","95","2.0.0","163436","pkla5o2651l","heron","<div style=""font-size:60px;"">+</div>","null","","",""
"","null","html-keyboard-response","96","2.0.0","164948","pkla5o2651l","heron","<p>butter</p>","null","","",""
"","null","html-keyboard-response","97","2.0.0","165962","pkla5o2651l","heron","<div style=""font-size:60px;"">+</div>","null","","",""
"","null","html-keyboard-response","98","2.0.0","167471","pkla5o2651l","heron","<p>rye</p>","null","","",""
"","null","html-keyboard-response","99","2.0.0","168474","pkla5o2651l","heron","<div style=""font-size:60px;"">+</div>","null","","",""
"","null","html-keyboard-response","100","2.0.0","169988","pkla5o2651l","heron","<p>flour</p>","null","","",""
"","null","html-keyboard-response","101","2.0.0","171002","pkla5o2651l","heron","<div style=""font-size:60px;"">+</div>","null","","",""
"","null","html-keyboard-response","102","2.0.0","172513","pkla5o2651l","heron","<p>jam</p>","null","","",""
"","null","html-keyboard-response","103","2.0.0","174519","pkla5o2651l","heron","<h3>List 5 </h3>","null","","",""
"","null","html-keyboard-response","104","2.0.0","175529","pkla5o2651l","heron","<div style=""font-size:60px;"">+</div>","null","","",""
"","null","html-keyboard-response","105","2.0.0","177042","pkla5o2651l","heron","<p>warm</p>","null","","",""
"","null","html-keyboard-response","106","2.0.0","178045","pkla5o2651l","heron","<div style=""font-size:60px;"">+</div>","null","","",""
"","null","html-keyboard-response","107","2.0.0","179559","pkla5o2651l","heron","<p>wet</p>","null","","",""
"","null","html-keyboard-response","108","2.0.0","180560","pkla5o2651l","heron","<div style=""font-size:60px;"">+</div>","null","","",""
"","null","html-keyboard-response","109","2.0.0","182074","pkla5o2651l","heron","<p>heat</p>","null","","",""
"","null","html-keyboard-response","110","2.0.0","183089","pkla5o2651l","heron","<div style=""font-size:60px;"">+</div>","null","","",""
"","null","html-keyboard-response","111","2.0.0","184601","pkla5o2651l","heron","<p>frigid</p>","null","","",""
"","null","html-keyboard-response","112","2.0.0","185608","pkla5o2651l","heron","<div style=""font-size:60px;"">+</div>","null","","",""
"","null","html-keyboard-response","113","2.0.0","187120","pkla5o2651l","heron","<p>freeze</p>","null","","",""
"","null","html-keyboard-response","114","2.0.0","188135","pkla5o2651l","heron","<div style=""font-size:60px;"">+</div>","null","","",""
"","null","html-keyboard-response","115","2.0.0","189650","pkla5o2651l","heron","<p>ice</p>","null","","",""
"","null","html-keyboard-response","116","2.0.0","190665","pkla5o2651l","heron","<div style=""font-size:60px;"">+</div>","null","","",""
"","null","html-keyboard-response","117","2.0.0","192180","pkla5o2651l","heron","<p>winter</p>","null","","",""
"","null","html-keyboard-response","118","2.0.0","193183","pkla5o2651l","heron","<div style=""font-size:60px;"">+</div>","null","","",""
"","null","html-keyboard-response","119","2.0.0","194696","pkla5o2651l","heron","<p>weather</p>","null","","",""
"","null","html-keyboard-response","120","2.0.0","195711","pkla5o2651l","heron","<div style=""font-size:60px;"">+</div>","null","","",""
"","null","html-keyboard-response","121","2.0.0","197212","pkla5o2651l","heron","<p>air</p>","null","","",""
"","null","html-keyboard-response","122","2.0.0","198229","pkla5o2651l","heron","<div style=""font-size:60px;"">+</div>","null","","",""
"","null","html-keyboard-response","123","2.0.0","199737","pkla5o2651l","heron","<p>snow</p>","null","","",""
"","null","html-keyboard-response","124","2.0.0","200738","pkla5o2651l","heron","<div style=""font-size:60px;"">+</div>","null","","",""
"","null","html-keyboard-response","125","2.0.0","202248","pkla5o2651l","heron","<p>chilly</p>","null","","",""
"","null","html-keyboard-response","126","2.0.0","203264","pkla5o2651l","heron","<div style=""font-size:60px;"">+</div>","null","","",""
"","null","html-keyboard-response","127","2.0.0","204779","pkla5o2651l","heron","<p>hot</p>","null","","",""
"","null","html-keyboard-response","128","2.0.0","206781","pkla5o2651l","heron","<h3>List 6 </h3>","null","","",""
"","null","html-keyboard-response","129","2.0.0","207789","pkla5o2651l","heron","<div style=""font-size:60px;"">+</div>","null","","",""
"","null","html-keyboard-response","130","2.0.0","209303","pkla5o2651l","heron","<p>sit</p>","null","","",""
"","null","html-keyboard-response","131","2.0.0","210308","pkla5o2651l","heron","<div style=""font-size:60px;"">+</div>","null","","",""
"","null","html-keyboard-response","132","2.0.0","211820","pkla5o2651l","heron","<p>couch</p>","null","","",""
"","null","html-keyboard-response","133","2.0.0","212823","pkla5o2651l","heron","<div style=""font-size:60px;"">+</div>","null","","",""
"","null","html-keyboard-response","134","2.0.0","214335","pkla5o2651l","heron","<p>seat</p>","null","","",""
"","null","html-keyboard-response","135","2.0.0","215350","pkla5o2651l","heron","<div style=""font-size:60px;"">+</div>","null","","",""
"","null","html-keyboard-response","136","2.0.0","216861","pkla5o2651l","heron","<p>desk</p>","null","","",""
"","null","html-keyboard-response","137","2.0.0","217877","pkla5o2651l","heron","<div style=""font-size:60px;"">+</div>","null","","",""
"","null","html-keyboard-response","138","2.0.0","219391","pkla5o2651l","heron","<p>sofa</p>","null","","",""
"","null","html-keyboard-response","139","2.0.0","220404","pkla5o2651l","heron","<div style=""font-size:60px;"">+</div>","null","","",""
"","null","html-keyboard-response","140","2.0.0","221914","pkla5o2651l","heron","<p>wood</p>","null","","",""
"","null","html-keyboard-response","141","2.0.0","222917","pkla5o2651l","heron","<div style=""font-size:60px;"">+</div>","null","","",""
"","null","html-keyboard-response","142","2.0.0","224431","pkla5o2651l","heron","<p>legs</p>","null","","",""
"","null","html-keyboard-response","143","2.0.0","225444","pkla5o2651l","heron","<div style=""font-size:60px;"">+</div>","null","","",""
"","null","html-keyboard-response","144","2.0.0","226957","pkla5o2651l","heron","<p>table</p>","null","","",""
"","null","html-keyboard-response","145","2.0.0","227962","pkla5o2651l","heron","<div style=""font-size:60px;"">+</div>","null","","",""
"","null","html-keyboard-response","146","2.0.0","229474","pkla5o2651l","heron","<p>cushion</p>","null","","",""
"","null","html-keyboard-response","147","2.0.0","230488","pkla5o2651l","heron","<div style=""font-size:60px;"">+</div>","null","","",""
"","null","html-keyboard-response","148","2.0.0","232002","pkla5o2651l","heron","<p>swivel</p>","null","","",""
"","null","html-keyboard-response","149","2.0.0","233017","pkla5o2651l","heron","<div style=""font-size:60px;"">+</div>","null","","",""
"","null","html-keyboard-response","150","2.0.0","234528","pkla5o2651l","heron","<p>recliner</p>","null","","",""
"","null","html-keyboard-response","151","2.0.0","235534","pkla5o2651l","heron","<div style=""font-size:60px;"">+</div>","null","","",""
"","null","html-keyboard-response","152","2.0.0","237049","pkla5o2651l","heron","<p>stool</p>","null","","",""
"","31328","html-keyboard-response","153","2.0.0","268378","pkla5o2651l","heron","Now you will rate your confidence that each word occurred on the list. <p>Please indicate whether you think the word was definitely new, probably new, probably old, or definitely old.</p> <p>Press any key to continue.</P>"," ","","",""
"","5483","survey-likert","154","null","273862","pkla5o2651l","heron","","{""Q0"":2}","guitar","recognition","[0]"
"","8759","survey-likert","155","null","282622","pkla5o2651l","heron","","{""Q0"":2}","frame","recognition","[0]"
"","2495","survey-likert","156","null","285118","pkla5o2651l","heron","","{""Q0"":1}","procedure","recognition","[0]"
"","1735","survey-likert","157","null","286854","pkla5o2651l","heron","","{""Q0"":2}","drift","recognition","[0]"
"","1551","survey-likert","158","null","288406","pkla5o2651l","heron","","{""Q0"":2}","chair","recognition","[0]"
"","959","survey-likert","159","null","289366","pkla5o2651l","heron","","{""Q0"":2}","clock","recognition","[0]"
"","3791","survey-likert","160","null","293158","pkla5o2651l","heron","","{""Q0"":3}","noise","recognition","[0]"
"","2247","survey-likert","161","null","295406","pkla5o2651l","heron","","{""Q0"":2}","oven","recognition","[0]"
"","1103","survey-likert","162","null","296510","pkla5o2651l","heron","","{""Q0"":2}","book","recognition","[0]"
"","2583","survey-likert","163","null","299094","pkla5o2651l","heron","","{""Q0"":0}","sick","recognition","[0]"
"","1647","survey-likert","164","null","300742","pkla5o2651l","heron","","{""Q0"":1}","wet","recognition","[0]"
"","1207","survey-likert","165","null","301950","pkla5o2651l","heron","","{""Q0"":2}","conflict","recognition","[0]"
"","1679","survey-likert","166","null","303630","pkla5o2651l","heron","","{""Q0"":2}","curtain","recognition","[0]"
"","1791","survey-likert","167","null","305422","pkla5o2651l","heron","","{""Q0"":0}","hate","recognition","[0]"
"","1367","survey-likert","168","null","306790","pkla5o2651l","heron","","{""Q0"":2}","mountain","recognition","[0]"
"","1271","survey-likert","169","null","308062","pkla5o2651l","heron","","{""Q0"":1}","river","recognition","[0]"
"","1215","survey-likert","170","null","309278","pkla5o2651l","heron","","{""Q0"":2}","shade","recognition","[0]"
"","1488","survey-likert","171","null","310767","pkla5o2651l","heron","","{""Q0"":2}","lighthouse","recognition","[0]"
"","2095","survey-likert","172","null","312862","pkla5o2651l","heron","","{""Q0"":2}","medicine","recognition","[0]"
"","3647","survey-likert","173","null","316510","pkla5o2651l","heron","","{""Q0"":0}","ink","recognition","[0]"
"","1927","survey-likert","174","null","318438","pkla5o2651l","heron","","{""Q0"":0}","anger","recognition","[0]"
"","2791","survey-likert","175","null","321231","pkla5o2651l","heron","","{""Q0"":0}","rage","recognition","[0]"
"","2735","survey-likert","176","null","323967","pkla5o2651l","heron","","{""Q0"":2}","swivel","recognition","[0]"
"","1439","survey-likert","177","null","325406","pkla5o2651l","heron","","{""Q0"":1}","bread","recognition","[0]"
"","1464","survey-likert","178","null","326871","pkla5o2651l","heron","","{""Q0"":2}","elephant","recognition","[0]"
"","975","survey-likert","179","null","327847","pkla5o2651l","heron","","{""Q0"":2}","jelly","recognition","[0]"
"","1199","survey-likert","180","null","329047","pkla5o2651l","heron","","{""Q0"":2}","laptop","recognition","[0]"
"","1391","survey-likert","181","null","330438","pkla5o2651l","heron","","{""Q0"":1}","doctor","recognition","[0]"
"","1688","survey-likert","182","null","332127","pkla5o2651l","heron","","{""Q0"":2}","planet","recognition","[0]"
"","1895","survey-likert","183","null","334023","pkla5o2651l","heron","","{""Q0"":1}","frigid","recognition","[0]"
"","1224","survey-likert","184","null","335247","pkla5o2651l","heron","","{""Q0"":2}","window","recognition","[0]"
"","1607","survey-likert","185","null","336855","pkla5o2651l","heron","","{""Q0"":2}","balloon","recognition","[0]"
"","1543","survey-likert","186","null","338399","pkla5o2651l","heron","","{""Q0"":0}","funeral","recognition","[0]"
"","3424","survey-likert","187","null","341823","pkla5o2651l","heron","","{""Q0"":2}","camera","recognition","[0]"
"","2175","survey-likert","188","null","343999","pkla5o2651l","heron","","{""Q0"":2}","basket","recognition","[0]"
"","3103","survey-likert","189","null","347103","pkla5o2651l","heron","","{""Q0"":1}","slice","recognition","[0]"
"","1791","survey-likert","190","null","348895","pkla5o2651l","heron","","{""Q0"":1}","void","recognition","[0]"
"","1655","survey-likert","191","null","350551","pkla5o2651l","heron","","{""Q0"":2}","legs","recognition","[0]"
"","1159","survey-likert","192","null","351711","pkla5o2651l","heron","","{""Q0"":2}","balance","recognition","[0]"
"","2975","survey-likert","193","null","354687","pkla5o2651l","heron","","{""Q0"":0}","cold","recognition","[0]"
"","2895","survey-likert","194","null","357583","pkla5o2651l","heron","","{""Q0"":2}","black","recognition","[0]"
"","1431","survey-likert","195","null","359015","pkla5o2651l","heron","","{""Q0"":1}","attention","recognition","[0]"
"","16597","survey-text","196","2.0.0","375616","pkla5o2651l","heron","","{""age"":""24"",""gender"":""female"",""Q2"":""honestly i have no clue "",""Q3"":""no""}","","",""
