"success","rt","trial_type","trial_index","plugin_version","time_elapsed","random_id","participant","stimulus","response","word","type","question_order"
"true","1328","fullscreen","0","null","2341","pr3l31nor41","raccoon","","","","",""
"","4880","html-keyboard-response","1","2.0.0","7221","pr3l31nor41","raccoon","Welcome to the Fasle Recall Experiment.<p>You will see and listen to 6 lists of 12-words one at a time. Try to remember as many as you can.</p><p>After the list, you’ll be asked to complete a recognition test.</p><p>Press any key to begin.</p>"," ","","",""
"","3999","survey-text","2","2.0.0","11222","pr3l31nor41","raccoon","","{""participant_id"":""raccoon""}","","",""
"","null","html-keyboard-response","3","2.0.0","13225","pr3l31nor41","raccoon","<h3>List 1 </h3>","null","","",""
"","null","html-keyboard-response","4","2.0.0","14229","pr3l31nor41","raccoon","<div style=""font-size:60px;"">+</div>","null","","",""
"","null","html-keyboard-response","5","2.0.0","15743","pr3l31nor41","raccoon","<p>ink</p>","null","","",""
"","null","html-keyboard-response","6","2.0.0","16758","pr3l31nor41","raccoon","<div style=""font-size:60px;"">+</div>","null","","",""
"","null","html-keyboard-response","7","2.0.0","18268","pr3l31nor41","raccoon","<p>charred</p>","null","","",""
"","null","html-keyboard-response","8","2.0.0","19285","pr3l31nor41","raccoon","<div style=""font-size:60px;"">+</div>","null","","",""
"","null","html-keyboard-response","9","2.0.0","20793","pr3l31nor41","raccoon","<p>death</p>","null","","",""
"","null","html-keyboard-response","10","2.0.0","21809","pr3l31nor41","raccoon","<div style=""font-size:60px;"">+</div>","null","","",""
"","null","html-keyboard-response","11","2.0.0","23317","pr3l31nor41","raccoon","<p>dark</p>","null","","",""
"","null","html-keyboard-response","12","2.0.0","24332","pr3l31nor41","raccoon","<div style=""font-size:60px;"">+</div>","null","","",""
"","null","html-keyboard-response","13","2.0.0","25847","pr3l31nor41","raccoon","<p>night</p>","null","","",""
"","null","html-keyboard-response","14","2.0.0","26856","pr3l31nor41","raccoon","<div style=""font-size:60px;"">+</div>","null","","",""
"","null","html-keyboard-response","15","2.0.0","29065","pr3l31nor41","raccoon","<p>bottom</p>","null","","",""
"","null","html-keyboard-response","16","2.0.0","30285","pr3l31nor41","raccoon","<div style=""font-size:60px;"">+</div>","null","","",""
"","null","html-keyboard-response","17","2.0.0","32284","pr3l31nor41","raccoon","<p>grief</p>","null","","",""
"","null","html-keyboard-response","18","2.0.0","34287","pr3l31nor41","raccoon","<div style=""font-size:60px;"">+</div>","null","","",""
"","null","html-keyboard-response","19","2.0.0","36280","pr3l31nor41","raccoon","<p>cat</p>","null","","",""
"","null","html-keyboard-response","20","2.0.0","38279","pr3l31nor41","raccoon","<div style=""font-size:60px;"">+</div>","null","","",""
"","null","html-keyboard-response","21","2.0.0","39791","pr3l31nor41","raccoon","<p>funeral</p>","null","","",""
"","null","html-keyboard-response","22","2.0.0","41275","pr3l31nor41","raccoon","<div style=""font-size:60px;"">+</div>","null","","",""
"","null","html-keyboard-response","23","2.0.0","43286","pr3l31nor41","raccoon","<p>white</p>","null","","",""
"","null","html-keyboard-response","24","2.0.0","45275","pr3l31nor41","raccoon","<div style=""font-size:60px;"">+</div>","null","","",""
"","null","html-keyboard-response","25","2.0.0","47284","pr3l31nor41","raccoon","<p>blue</p>","null","","",""
"","null","html-keyboard-response","26","2.0.0","49289","pr3l31nor41","raccoon","<div style=""font-size:60px;"">+</div>","null","","",""
"","null","html-keyboard-response","27","2.0.0","51289","pr3l31nor41","raccoon","<p>color</p>","null","","",""
"","null","html-keyboard-response","28","2.0.0","54287","pr3l31nor41","raccoon","<h3>List 2 </h3>","null","","",""
"","null","html-keyboard-response","29","2.0.0","56279","pr3l31nor41","raccoon","<div style=""font-size:60px;"">+</div>","null","","",""
"","null","html-keyboard-response","30","2.0.0","57780","pr3l31nor41","raccoon","<p>food</p>","null","","",""
"","null","html-keyboard-response","31","2.0.0","58787","pr3l31nor41","raccoon","<div style=""font-size:60px;"">+</div>","null","","",""
"","null","html-keyboard-response","32","2.0.0","60290","pr3l31nor41","raccoon","<p>dough</p>","null","","",""
"","null","html-keyboard-response","33","2.0.0","61291","pr3l31nor41","raccoon","<div style=""font-size:60px;"">+</div>","null","","",""
"","null","html-keyboard-response","34","2.0.0","62804","pr3l31nor41","raccoon","<p>crust</p>","null","","",""
"","null","html-keyboard-response","35","2.0.0","64201","pr3l31nor41","raccoon","<div style=""font-size:60px;"">+</div>","null","","",""
"","null","html-keyboard-response","36","2.0.0","65701","pr3l31nor41","raccoon","<p>rye</p>","null","","",""
"","null","html-keyboard-response","37","2.0.0","66711","pr3l31nor41","raccoon","<div style=""font-size:60px;"">+</div>","null","","",""
"","null","html-keyboard-response","38","2.0.0","68219","pr3l31nor41","raccoon","<p>slice</p>","null","","",""
"","null","html-keyboard-response","39","2.0.0","69233","pr3l31nor41","raccoon","<div style=""font-size:60px;"">+</div>","null","","",""
"","null","html-keyboard-response","40","2.0.0","71275","pr3l31nor41","raccoon","<p>jelly</p>","null","","",""
"","null","html-keyboard-response","41","2.0.0","73278","pr3l31nor41","raccoon","<div style=""font-size:60px;"">+</div>","null","","",""
"","null","html-keyboard-response","42","2.0.0","75278","pr3l31nor41","raccoon","<p>jam</p>","null","","",""
"","null","html-keyboard-response","43","2.0.0","77276","pr3l31nor41","raccoon","<div style=""font-size:60px;"">+</div>","null","","",""
"","null","html-keyboard-response","44","2.0.0","79276","pr3l31nor41","raccoon","<p>eat</p>","null","","",""
"","null","html-keyboard-response","45","2.0.0","81284","pr3l31nor41","raccoon","<div style=""font-size:60px;"">+</div>","null","","",""
"","null","html-keyboard-response","46","2.0.0","82790","pr3l31nor41","raccoon","<p>sandwich</p>","null","","",""
"","null","html-keyboard-response","47","2.0.0","83795","pr3l31nor41","raccoon","<div style=""font-size:60px;"">+</div>","null","","",""
"","null","html-keyboard-response","48","2.0.0","85301","pr3l31nor41","raccoon","<p>butter</p>","null","","",""
"","null","html-keyboard-response","49","2.0.0","86316","pr3l31nor41","raccoon","<div style=""font-size:60px;"">+</div>","null","","",""
"","null","html-keyboard-response","50","2.0.0","87827","pr3l31nor41","raccoon","<p>flour</p>","null","","",""
"","null","html-keyboard-response","51","2.0.0","88838","pr3l31nor41","raccoon","<div style=""font-size:60px;"">+</div>","null","","",""
"","null","html-keyboard-response","52","2.0.0","90343","pr3l31nor41","raccoon","<p>milk</p>","null","","",""
"","null","html-keyboard-response","53","2.0.0","92358","pr3l31nor41","raccoon","<h3>List 3 </h3>","null","","",""
"","null","html-keyboard-response","54","2.0.0","93370","pr3l31nor41","raccoon","<div style=""font-size:60px;"">+</div>","null","","",""
"","null","html-keyboard-response","55","2.0.0","94875","pr3l31nor41","raccoon","<p>wrath</p>","null","","",""
"","null","html-keyboard-response","56","2.0.0","95877","pr3l31nor41","raccoon","<div style=""font-size:60px;"">+</div>","null","","",""
"","null","html-keyboard-response","57","2.0.0","97390","pr3l31nor41","raccoon","<p>rage</p>","null","","",""
"","null","html-keyboard-response","58","2.0.0","98404","pr3l31nor41","raccoon","<div style=""font-size:60px;"">+</div>","null","","",""
"","null","html-keyboard-response","59","2.0.0","99921","pr3l31nor41","raccoon","<p>mad</p>","null","","",""
"","null","html-keyboard-response","60","2.0.0","100935","pr3l31nor41","raccoon","<div style=""font-size:60px;"">+</div>","null","","",""
"","null","html-keyboard-response","61","2.0.0","102438","pr3l31nor41","raccoon","<p>mean</p>","null","","",""
"","null","html-keyboard-response","62","2.0.0","103450","pr3l31nor41","raccoon","<div style=""font-size:60px;"">+</div>","null","","",""
"","null","html-keyboard-response","63","2.0.0","104954","pr3l31nor41","raccoon","<p>hate</p>","null","","",""
"","null","html-keyboard-response","64","2.0.0","105967","pr3l31nor41","raccoon","<div style=""font-size:60px;"">+</div>","null","","",""
"","null","html-keyboard-response","65","2.0.0","107474","pr3l31nor41","raccoon","<p>hatred</p>","null","","",""
"","null","html-keyboard-response","66","2.0.0","108475","pr3l31nor41","raccoon","<div style=""font-size:60px;"">+</div>","null","","",""
"","null","html-keyboard-response","67","2.0.0","109976","pr3l31nor41","raccoon","<p>fear</p>","null","","",""
"","null","html-keyboard-response","68","2.0.0","110978","pr3l31nor41","raccoon","<div style=""font-size:60px;"">+</div>","null","","",""
"","null","html-keyboard-response","69","2.0.0","112490","pr3l31nor41","raccoon","<p>happy</p>","null","","",""
"","null","html-keyboard-response","70","2.0.0","113492","pr3l31nor41","raccoon","<div style=""font-size:60px;"">+</div>","null","","",""
"","null","html-keyboard-response","71","2.0.0","114998","pr3l31nor41","raccoon","<p>fight</p>","null","","",""
"","null","html-keyboard-response","72","2.0.0","116012","pr3l31nor41","raccoon","<div style=""font-size:60px;"">+</div>","null","","",""
"","null","html-keyboard-response","73","2.0.0","117523","pr3l31nor41","raccoon","<p>temper</p>","null","","",""
"","null","html-keyboard-response","74","2.0.0","118532","pr3l31nor41","raccoon","<div style=""font-size:60px;"">+</div>","null","","",""
"","null","html-keyboard-response","75","2.0.0","120036","pr3l31nor41","raccoon","<p>ire</p>","null","","",""
"","null","html-keyboard-response","76","2.0.0","121050","pr3l31nor41","raccoon","<div style=""font-size:60px;"">+</div>","null","","",""
"","null","html-keyboard-response","77","2.0.0","122565","pr3l31nor41","raccoon","<p>fury</p>","null","","",""
"","null","html-keyboard-response","78","2.0.0","124571","pr3l31nor41","raccoon","<h3>List 4 </h3>","null","","",""
"","null","html-keyboard-response","79","2.0.0","125573","pr3l31nor41","raccoon","<div style=""font-size:60px;"">+</div>","null","","",""
"","null","html-keyboard-response","80","2.0.0","127085","pr3l31nor41","raccoon","<p>table</p>","null","","",""
"","null","html-keyboard-response","81","2.0.0","128086","pr3l31nor41","raccoon","<div style=""font-size:60px;"">+</div>","null","","",""
"","null","html-keyboard-response","82","2.0.0","129595","pr3l31nor41","raccoon","<p>wood</p>","null","","",""
"","null","html-keyboard-response","83","2.0.0","130609","pr3l31nor41","raccoon","<div style=""font-size:60px;"">+</div>","null","","",""
"","null","html-keyboard-response","84","2.0.0","132110","pr3l31nor41","raccoon","<p>desk</p>","null","","",""
"","null","html-keyboard-response","85","2.0.0","133112","pr3l31nor41","raccoon","<div style=""font-size:60px;"">+</div>","null","","",""
"","null","html-keyboard-response","86","2.0.0","134621","pr3l31nor41","raccoon","<p>seat</p>","null","","",""
"","null","html-keyboard-response","87","2.0.0","135634","pr3l31nor41","raccoon","<div style=""font-size:60px;"">+</div>","null","","",""
"","null","html-keyboard-response","88","2.0.0","137138","pr3l31nor41","raccoon","<p>couch</p>","null","","",""
"","null","html-keyboard-response","89","2.0.0","138150","pr3l31nor41","raccoon","<div style=""font-size:60px;"">+</div>","null","","",""
"","null","html-keyboard-response","90","2.0.0","139665","pr3l31nor41","raccoon","<p>stool</p>","null","","",""
"","null","html-keyboard-response","91","2.0.0","140677","pr3l31nor41","raccoon","<div style=""font-size:60px;"">+</div>","null","","",""
"","null","html-keyboard-response","92","2.0.0","142185","pr3l31nor41","raccoon","<p>sofa</p>","null","","",""
"","null","html-keyboard-response","93","2.0.0","143197","pr3l31nor41","raccoon","<div style=""font-size:60px;"">+</div>","null","","",""
"","null","html-keyboard-response","94","2.0.0","144713","pr3l31nor41","raccoon","<p>legs</p>","null","","",""
"","null","html-keyboard-response","95","2.0.0","145726","pr3l31nor41","raccoon","<div style=""font-size:60px;"">+</div>","null","","",""
"","null","html-keyboard-response","96","2.0.0","147228","pr3l31nor41","raccoon","<p>swivel</p>","null","","",""
"","null","html-keyboard-response","97","2.0.0","148238","pr3l31nor41","raccoon","<div style=""font-size:60px;"">+</div>","null","","",""
"","null","html-keyboard-response","98","2.0.0","149748","pr3l31nor41","raccoon","<p>recliner</p>","null","","",""
"","null","html-keyboard-response","99","2.0.0","150759","pr3l31nor41","raccoon","<div style=""font-size:60px;"">+</div>","null","","",""
"","null","html-keyboard-response","100","2.0.0","152264","pr3l31nor41","raccoon","<p>sit</p>","null","","",""
"","null","html-keyboard-response","101","2.0.0","153271","pr3l31nor41","raccoon","<div style=""font-size:60px;"">+</div>","null","","",""
"","null","html-keyboard-response","102","2.0.0","154786","pr3l31nor41","raccoon","<p>cushion</p>","null","","",""
"","null","html-keyboard-response","103","2.0.0","156800","pr3l31nor41","raccoon","<h3>List 5 </h3>","null","","",""
"","null","html-keyboard-response","104","2.0.0","157807","pr3l31nor41","raccoon","<div style=""font-size:60px;"">+</div>","null","","",""
"","null","html-keyboard-response","105","2.0.0","159308","pr3l31nor41","raccoon","<p>hospital</p>","null","","",""
"","null","html-keyboard-response","106","2.0.0","160319","pr3l31nor41","raccoon","<div style=""font-size:60px;"">+</div>","null","","",""
"","null","html-keyboard-response","107","2.0.0","161827","pr3l31nor41","raccoon","<p>lawyer</p>","null","","",""
"","null","html-keyboard-response","108","2.0.0","162839","pr3l31nor41","raccoon","<div style=""font-size:60px;"">+</div>","null","","",""
"","null","html-keyboard-response","109","2.0.0","164343","pr3l31nor41","raccoon","<p>medicine</p>","null","","",""
"","null","html-keyboard-response","110","2.0.0","165357","pr3l31nor41","raccoon","<div style=""font-size:60px;"">+</div>","null","","",""
"","null","html-keyboard-response","111","2.0.0","166866","pr3l31nor41","raccoon","<p>patient</p>","null","","",""
"","null","html-keyboard-response","112","2.0.0","167877","pr3l31nor41","raccoon","<div style=""font-size:60px;"">+</div>","null","","",""
"","null","html-keyboard-response","113","2.0.0","169384","pr3l31nor41","raccoon","<p>sick</p>","null","","",""
"","null","html-keyboard-response","114","2.0.0","171277","pr3l31nor41","raccoon","<div style=""font-size:60px;"">+</div>","null","","",""
"","null","html-keyboard-response","115","2.0.0","173286","pr3l31nor41","raccoon","<p>dentist</p>","null","","",""
"","null","html-keyboard-response","116","2.0.0","175279","pr3l31nor41","raccoon","<div style=""font-size:60px;"">+</div>","null","","",""
"","null","html-keyboard-response","117","2.0.0","177290","pr3l31nor41","raccoon","<p>office</p>","null","","",""
"","null","html-keyboard-response","118","2.0.0","179278","pr3l31nor41","raccoon","<div style=""font-size:60px;"">+</div>","null","","",""
"","null","html-keyboard-response","119","2.0.0","181278","pr3l31nor41","raccoon","<p>ill</p>","null","","",""
"","null","html-keyboard-response","120","2.0.0","183287","pr3l31nor41","raccoon","<div style=""font-size:60px;"">+</div>","null","","",""
"","null","html-keyboard-response","121","2.0.0","185278","pr3l31nor41","raccoon","<p>physician</p>","null","","",""
"","null","html-keyboard-response","122","2.0.0","187284","pr3l31nor41","raccoon","<div style=""font-size:60px;"">+</div>","null","","",""
"","null","html-keyboard-response","123","2.0.0","189279","pr3l31nor41","raccoon","<p>health</p>","null","","",""
"","null","html-keyboard-response","124","2.0.0","191280","pr3l31nor41","raccoon","<div style=""font-size:60px;"">+</div>","null","","",""
"","null","html-keyboard-response","125","2.0.0","193285","pr3l31nor41","raccoon","<p>stethoscope</p>","null","","",""
"","null","html-keyboard-response","126","2.0.0","195282","pr3l31nor41","raccoon","<div style=""font-size:60px;"">+</div>","null","","",""
"","null","html-keyboard-response","127","2.0.0","197277","pr3l31nor41","raccoon","<p>nurse</p>","null","","",""
"","null","html-keyboard-response","128","2.0.0","200279","pr3l31nor41","raccoon","<h3>List 6 </h3>","null","","",""
"","null","html-keyboard-response","129","2.0.0","202290","pr3l31nor41","raccoon","<div style=""font-size:60px;"">+</div>","null","","",""
"","null","html-keyboard-response","130","2.0.0","204287","pr3l31nor41","raccoon","<p>freeze</p>","null","","",""
"","null","html-keyboard-response","131","2.0.0","206278","pr3l31nor41","raccoon","<div style=""font-size:60px;"">+</div>","null","","",""
"","null","html-keyboard-response","132","2.0.0","208285","pr3l31nor41","raccoon","<p>winter</p>","null","","",""
"","null","html-keyboard-response","133","2.0.0","210278","pr3l31nor41","raccoon","<div style=""font-size:60px;"">+</div>","null","","",""
"","null","html-keyboard-response","134","2.0.0","212289","pr3l31nor41","raccoon","<p>hot</p>","null","","",""
"","null","html-keyboard-response","135","2.0.0","214281","pr3l31nor41","raccoon","<div style=""font-size:60px;"">+</div>","null","","",""
"","null","html-keyboard-response","136","2.0.0","216276","pr3l31nor41","raccoon","<p>ice</p>","null","","",""
"","null","html-keyboard-response","137","2.0.0","218289","pr3l31nor41","raccoon","<div style=""font-size:60px;"">+</div>","null","","",""
"","null","html-keyboard-response","138","2.0.0","220277","pr3l31nor41","raccoon","<p>warm</p>","null","","",""
"","null","html-keyboard-response","139","2.0.0","222280","pr3l31nor41","raccoon","<div style=""font-size:60px;"">+</div>","null","","",""
"","null","html-keyboard-response","140","2.0.0","224276","pr3l31nor41","raccoon","<p>heat</p>","null","","",""
"","null","html-keyboard-response","141","2.0.0","226285","pr3l31nor41","raccoon","<div style=""font-size:60px;"">+</div>","null","","",""
"","null","html-keyboard-response","142","2.0.0","228278","pr3l31nor41","raccoon","<p>chilly</p>","null","","",""
"","null","html-keyboard-response","143","2.0.0","238281","pr3l31nor41","raccoon","<div style=""font-size:60px;"">+</div>","null","","",""
"","null","html-keyboard-response","144","2.0.0","260045","pr3l31nor41","raccoon","<p>weather</p>","null","","",""
"","null","html-keyboard-response","145","2.0.0","261056","pr3l31nor41","raccoon","<div style=""font-size:60px;"">+</div>","null","","",""
"","null","html-keyboard-response","146","2.0.0","262564","pr3l31nor41","raccoon","<p>wet</p>","null","","",""
"","null","html-keyboard-response","147","2.0.0","263568","pr3l31nor41","raccoon","<div style=""font-size:60px;"">+</div>","null","","",""
"","null","html-keyboard-response","148","2.0.0","265288","pr3l31nor41","raccoon","<p>snow</p>","null","","",""
"","null","html-keyboard-response","149","2.0.0","267286","pr3l31nor41","raccoon","<div style=""font-size:60px;"">+</div>","null","","",""
"","null","html-keyboard-response","150","2.0.0","269290","pr3l31nor41","raccoon","<p>air</p>","null","","",""
"","null","html-keyboard-response","151","2.0.0","271291","pr3l31nor41","raccoon","<div style=""font-size:60px;"">+</div>","null","","",""
"","null","html-keyboard-response","152","2.0.0","273284","pr3l31nor41","raccoon","<p>frigid</p>","null","","",""
"","13626","html-keyboard-response","153","2.0.0","286910","pr3l31nor41","raccoon","Now you will rate your confidence that each word occurred on the list. <p>Please indicate whether you think the word was definitely new, probably new, probably old, or definitely old.</p> <p>Press any key to continue.</P>"," ","","",""
"","4639","survey-likert","154","null","291550","pr3l31nor41","raccoon","","{""Q0"":1}","void","recognition","[0]"
"","3041","survey-likert","155","null","294592","pr3l31nor41","raccoon","","{""Q0"":2}","balance","recognition","[0]"
"","1463","survey-likert","156","null","296055","pr3l31nor41","raccoon","","{""Q0"":2}","frigid","recognition","[0]"
"","1849","survey-likert","157","null","297905","pr3l31nor41","raccoon","","{""Q0"":2}","bottom","recognition","[0]"
"","1074","survey-likert","158","null","298980","pr3l31nor41","raccoon","","{""Q0"":2}","clock","recognition","[0]"
"","1774","survey-likert","159","null","300755","pr3l31nor41","raccoon","","{""Q0"":1}","bread","recognition","[0]"
"","2414","survey-likert","160","null","303169","pr3l31nor41","raccoon","","{""Q0"":1}","black","recognition","[0]"
"","1006","survey-likert","161","null","304176","pr3l31nor41","raccoon","","{""Q0"":2}","curtain","recognition","[0]"
"","1167","survey-likert","162","null","305344","pr3l31nor41","raccoon","","{""Q0"":1}","conflict","recognition","[0]"
"","1527","survey-likert","163","null","306872","pr3l31nor41","raccoon","","{""Q0"":2}","drift","recognition","[0]"
"","1075","survey-likert","164","null","307947","pr3l31nor41","raccoon","","{""Q0"":2}","air","recognition","[0]"
"","998","survey-likert","165","null","308946","pr3l31nor41","raccoon","","{""Q0"":2}","book","recognition","[0]"
"","1837","survey-likert","166","null","310783","pr3l31nor41","raccoon","","{""Q0"":1}","chair","recognition","[0]"
"","2723","survey-likert","167","null","313507","pr3l31nor41","raccoon","","{""Q0"":2}","procedure","recognition","[0]"
"","2455","survey-likert","168","null","315963","pr3l31nor41","raccoon","","{""Q0"":2}","laptop","recognition","[0]"
"","1399","survey-likert","169","null","317362","pr3l31nor41","raccoon","","{""Q0"":2}","sofa","recognition","[0]"
"","1908","survey-likert","170","null","319271","pr3l31nor41","raccoon","","{""Q0"":2}","mean","recognition","[0]"
"","1373","survey-likert","171","null","320645","pr3l31nor41","raccoon","","{""Q0"":1}","basket","recognition","[0]"
"","2471","survey-likert","172","null","323116","pr3l31nor41","raccoon","","{""Q0"":2}","noise","recognition","[0]"
"","1069","survey-likert","173","null","324186","pr3l31nor41","raccoon","","{""Q0"":2}","sick","recognition","[0]"
"","1521","survey-likert","174","null","325708","pr3l31nor41","raccoon","","{""Q0"":2}","window","recognition","[0]"
"","952","survey-likert","175","null","326660","pr3l31nor41","raccoon","","{""Q0"":2}","mountain","recognition","[0]"
"","1065","survey-likert","176","null","327726","pr3l31nor41","raccoon","","{""Q0"":2}","cold","recognition","[0]"
"","992","survey-likert","177","null","328718","pr3l31nor41","raccoon","","{""Q0"":2}","frame","recognition","[0]"
"","1599","survey-likert","178","null","330318","pr3l31nor41","raccoon","","{""Q0"":1}","fight","recognition","[0]"
"","1017","survey-likert","179","null","331336","pr3l31nor41","raccoon","","{""Q0"":2}","shade","recognition","[0]"
"","1867","survey-likert","180","null","333204","pr3l31nor41","raccoon","","{""Q0"":1}","oven","recognition","[0]"
"","1973","survey-likert","181","null","335178","pr3l31nor41","raccoon","","{""Q0"":2}","river","recognition","[0]"
"","1466","survey-likert","182","null","336644","pr3l31nor41","raccoon","","{""Q0"":1}","attention","recognition","[0]"
"","970","survey-likert","183","null","337615","pr3l31nor41","raccoon","","{""Q0"":1}","white","recognition","[0]"
"","35537","survey-likert","184","null","373153","pr3l31nor41","raccoon","","{""Q0"":2}","camera","recognition","[0]"
"","1033","survey-likert","185","null","374186","pr3l31nor41","raccoon","","{""Q0"":2}","eat","recognition","[0]"
"","1870","survey-likert","186","null","376057","pr3l31nor41","raccoon","","{""Q0"":1}","guitar","recognition","[0]"
"","1055","survey-likert","187","null","377113","pr3l31nor41","raccoon","","{""Q0"":1}","elephant","recognition","[0]"
"","1069","survey-likert","188","null","378183","pr3l31nor41","raccoon","","{""Q0"":2}","seat","recognition","[0]"
"","805","survey-likert","189","null","378988","pr3l31nor41","raccoon","","{""Q0"":2}","food","recognition","[0]"
"","911","survey-likert","190","null","379900","pr3l31nor41","raccoon","","{""Q0"":2}","doctor","recognition","[0]"
"","1308","survey-likert","191","null","381209","pr3l31nor41","raccoon","","{""Q0"":1}","lighthouse","recognition","[0]"
"","787","survey-likert","192","null","381996","pr3l31nor41","raccoon","","{""Q0"":2}","anger","recognition","[0]"
"","787","survey-likert","193","null","382784","pr3l31nor41","raccoon","","{""Q0"":2}","balloon","recognition","[0]"
"","930","survey-likert","194","null","383715","pr3l31nor41","raccoon","","{""Q0"":2}","office","recognition","[0]"
"","735","survey-likert","195","null","384450","pr3l31nor41","raccoon","","{""Q0"":2}","planet","recognition","[0]"
"","18018","survey-text","196","2.0.0","402471","pr3l31nor41","raccoon","","{""age"":""21"",""gender"":""M"",""Q2"":""test the greatest limit of memorization"",""Q3"":""no""}","","",""
