"success","rt","trial_type","trial_index","plugin_version","time_elapsed","random_id","participant","stimulus","response","word","type","question_order"
"true","6762","fullscreen","0","null","7770","pucqcvz241h","badger","","","","",""
"","18615","html-keyboard-response","1","2.0.0","26390","pucqcvz241h","badger","Welcome to the Fasle Recall Experiment.<p>You will see and listen to 6 lists of 12-words one at a time. Try to remember as many as you can.</p><p>After the list, you’ll be asked to complete a recognition test.</p><p>Press any key to begin.</p>"," ","","",""
"","2751","survey-text","2","2.0.0","29145","pucqcvz241h","badger","","{""participant_id"":""badger""}","","",""
"","null","html-keyboard-response","3","2.0.0","31149","pucqcvz241h","badger","<h3>List 1 </h3>","null","","",""
"","null","html-keyboard-response","4","2.0.0","32151","pucqcvz241h","badger","<div style=""font-size:60px;"">+</div>","null","","",""
"","null","html-keyboard-response","5","2.0.0","33654","pucqcvz241h","badger","<p>temper</p>","null","","",""
"","null","html-keyboard-response","6","2.0.0","34657","pucqcvz241h","badger","<div style=""font-size:60px;"">+</div>","null","","",""
"","null","html-keyboard-response","7","2.0.0","36166","pucqcvz241h","badger","<p>hate</p>","null","","",""
"","null","html-keyboard-response","8","2.0.0","37169","pucqcvz241h","badger","<div style=""font-size:60px;"">+</div>","null","","",""
"","null","html-keyboard-response","9","2.0.0","38672","pucqcvz241h","badger","<p>happy</p>","null","","",""
"","null","html-keyboard-response","10","2.0.0","39674","pucqcvz241h","badger","<div style=""font-size:60px;"">+</div>","null","","",""
"","null","html-keyboard-response","11","2.0.0","41177","pucqcvz241h","badger","<p>rage</p>","null","","",""
"","null","html-keyboard-response","12","2.0.0","42186","pucqcvz241h","badger","<div style=""font-size:60px;"">+</div>","null","","",""
"","null","html-keyboard-response","13","2.0.0","43689","pucqcvz241h","badger","<p>fury</p>","null","","",""
"","null","html-keyboard-response","14","2.0.0","44692","pucqcvz241h","badger","<div style=""font-size:60px;"">+</div>","null","","",""
"","null","html-keyboard-response","15","2.0.0","46194","pucqcvz241h","badger","<p>wrath</p>","null","","",""
"","null","html-keyboard-response","16","2.0.0","47197","pucqcvz241h","badger","<div style=""font-size:60px;"">+</div>","null","","",""
"","null","html-keyboard-response","17","2.0.0","48699","pucqcvz241h","badger","<p>mean</p>","null","","",""
"","null","html-keyboard-response","18","2.0.0","49701","pucqcvz241h","badger","<div style=""font-size:60px;"">+</div>","null","","",""
"","null","html-keyboard-response","19","2.0.0","51203","pucqcvz241h","badger","<p>fight</p>","null","","",""
"","null","html-keyboard-response","20","2.0.0","52206","pucqcvz241h","badger","<div style=""font-size:60px;"">+</div>","null","","",""
"","null","html-keyboard-response","21","2.0.0","53710","pucqcvz241h","badger","<p>ire</p>","null","","",""
"","null","html-keyboard-response","22","2.0.0","54712","pucqcvz241h","badger","<div style=""font-size:60px;"">+</div>","null","","",""
"","null","html-keyboard-response","23","2.0.0","56214","pucqcvz241h","badger","<p>mad</p>","null","","",""
"","null","html-keyboard-response","24","2.0.0","57217","pucqcvz241h","badger","<div style=""font-size:60px;"">+</div>","null","","",""
"","null","html-keyboard-response","25","2.0.0","58719","pucqcvz241h","badger","<p>hatred</p>","null","","",""
"","null","html-keyboard-response","26","2.0.0","59721","pucqcvz241h","badger","<div style=""font-size:60px;"">+</div>","null","","",""
"","null","html-keyboard-response","27","2.0.0","61223","pucqcvz241h","badger","<p>fear</p>","null","","",""
"","null","html-keyboard-response","28","2.0.0","63226","pucqcvz241h","badger","<h3>List 2 </h3>","null","","",""
"","null","html-keyboard-response","29","2.0.0","64229","pucqcvz241h","badger","<div style=""font-size:60px;"">+</div>","null","","",""
"","null","html-keyboard-response","30","2.0.0","65732","pucqcvz241h","badger","<p>legs</p>","null","","",""
"","null","html-keyboard-response","31","2.0.0","66734","pucqcvz241h","badger","<div style=""font-size:60px;"">+</div>","null","","",""
"","null","html-keyboard-response","32","2.0.0","68239","pucqcvz241h","badger","<p>desk</p>","null","","",""
"","null","html-keyboard-response","33","2.0.0","69240","pucqcvz241h","badger","<div style=""font-size:60px;"">+</div>","null","","",""
"","null","html-keyboard-response","34","2.0.0","70743","pucqcvz241h","badger","<p>wood</p>","null","","",""
"","null","html-keyboard-response","35","2.0.0","71746","pucqcvz241h","badger","<div style=""font-size:60px;"">+</div>","null","","",""
"","null","html-keyboard-response","36","2.0.0","73249","pucqcvz241h","badger","<p>sofa</p>","null","","",""
"","null","html-keyboard-response","37","2.0.0","74252","pucqcvz241h","badger","<div style=""font-size:60px;"">+</div>","null","","",""
"","null","html-keyboard-response","38","2.0.0","75754","pucqcvz241h","badger","<p>table</p>","null","","",""
"","null","html-keyboard-response","39","2.0.0","76757","pucqcvz241h","badger","<div style=""font-size:60px;"">+</div>","null","","",""
"","null","html-keyboard-response","40","2.0.0","78259","pucqcvz241h","badger","<p>swivel</p>","null","","",""
"","null","html-keyboard-response","41","2.0.0","79262","pucqcvz241h","badger","<div style=""font-size:60px;"">+</div>","null","","",""
"","null","html-keyboard-response","42","2.0.0","80764","pucqcvz241h","badger","<p>seat</p>","null","","",""
"","null","html-keyboard-response","43","2.0.0","81767","pucqcvz241h","badger","<div style=""font-size:60px;"">+</div>","null","","",""
"","null","html-keyboard-response","44","2.0.0","83269","pucqcvz241h","badger","<p>stool</p>","null","","",""
"","null","html-keyboard-response","45","2.0.0","84271","pucqcvz241h","badger","<div style=""font-size:60px;"">+</div>","null","","",""
"","null","html-keyboard-response","46","2.0.0","85774","pucqcvz241h","badger","<p>couch</p>","null","","",""
"","null","html-keyboard-response","47","2.0.0","86776","pucqcvz241h","badger","<div style=""font-size:60px;"">+</div>","null","","",""
"","null","html-keyboard-response","48","2.0.0","88279","pucqcvz241h","badger","<p>sit</p>","null","","",""
"","null","html-keyboard-response","49","2.0.0","89281","pucqcvz241h","badger","<div style=""font-size:60px;"">+</div>","null","","",""
"","null","html-keyboard-response","50","2.0.0","90784","pucqcvz241h","badger","<p>recliner</p>","null","","",""
"","null","html-keyboard-response","51","2.0.0","91787","pucqcvz241h","badger","<div style=""font-size:60px;"">+</div>","null","","",""
"","null","html-keyboard-response","52","2.0.0","93290","pucqcvz241h","badger","<p>cushion</p>","null","","",""
"","null","html-keyboard-response","53","2.0.0","95293","pucqcvz241h","badger","<h3>List 3 </h3>","null","","",""
"","null","html-keyboard-response","54","2.0.0","96295","pucqcvz241h","badger","<div style=""font-size:60px;"">+</div>","null","","",""
"","null","html-keyboard-response","55","2.0.0","97797","pucqcvz241h","badger","<p>death</p>","null","","",""
"","null","html-keyboard-response","56","2.0.0","98800","pucqcvz241h","badger","<div style=""font-size:60px;"">+</div>","null","","",""
"","null","html-keyboard-response","57","2.0.0","100303","pucqcvz241h","badger","<p>blue</p>","null","","",""
"","null","html-keyboard-response","58","2.0.0","101305","pucqcvz241h","badger","<div style=""font-size:60px;"">+</div>","null","","",""
"","null","html-keyboard-response","59","2.0.0","102808","pucqcvz241h","badger","<p>funeral</p>","null","","",""
"","null","html-keyboard-response","60","2.0.0","103811","pucqcvz241h","badger","<div style=""font-size:60px;"">+</div>","null","","",""
"","null","html-keyboard-response","61","2.0.0","105313","pucqcvz241h","badger","<p>charred</p>","null","","",""
"","null","html-keyboard-response","62","2.0.0","106316","pucqcvz241h","badger","<div style=""font-size:60px;"">+</div>","null","","",""
"","null","html-keyboard-response","63","2.0.0","107818","pucqcvz241h","badger","<p>white</p>","null","","",""
"","null","html-keyboard-response","64","2.0.0","108820","pucqcvz241h","badger","<div style=""font-size:60px;"">+</div>","null","","",""
"","null","html-keyboard-response","65","2.0.0","110323","pucqcvz241h","badger","<p>dark</p>","null","","",""
"","null","html-keyboard-response","66","2.0.0","111326","pucqcvz241h","badger","<div style=""font-size:60px;"">+</div>","null","","",""
"","null","html-keyboard-response","67","2.0.0","112828","pucqcvz241h","badger","<p>cat</p>","null","","",""
"","null","html-keyboard-response","68","2.0.0","113831","pucqcvz241h","badger","<div style=""font-size:60px;"">+</div>","null","","",""
"","null","html-keyboard-response","69","2.0.0","115333","pucqcvz241h","badger","<p>night</p>","null","","",""
"","null","html-keyboard-response","70","2.0.0","116336","pucqcvz241h","badger","<div style=""font-size:60px;"">+</div>","null","","",""
"","null","html-keyboard-response","71","2.0.0","117838","pucqcvz241h","badger","<p>bottom</p>","null","","",""
"","null","html-keyboard-response","72","2.0.0","118840","pucqcvz241h","badger","<div style=""font-size:60px;"">+</div>","null","","",""
"","null","html-keyboard-response","73","2.0.0","120343","pucqcvz241h","badger","<p>color</p>","null","","",""
"","null","html-keyboard-response","74","2.0.0","121345","pucqcvz241h","badger","<div style=""font-size:60px;"">+</div>","null","","",""
"","null","html-keyboard-response","75","2.0.0","122847","pucqcvz241h","badger","<p>grief</p>","null","","",""
"","null","html-keyboard-response","76","2.0.0","123849","pucqcvz241h","badger","<div style=""font-size:60px;"">+</div>","null","","",""
"","null","html-keyboard-response","77","2.0.0","125352","pucqcvz241h","badger","<p>ink</p>","null","","",""
"","null","html-keyboard-response","78","2.0.0","127355","pucqcvz241h","badger","<h3>List 4 </h3>","null","","",""
"","null","html-keyboard-response","79","2.0.0","128358","pucqcvz241h","badger","<div style=""font-size:60px;"">+</div>","null","","",""
"","null","html-keyboard-response","80","2.0.0","129861","pucqcvz241h","badger","<p>office</p>","null","","",""
"","null","html-keyboard-response","81","2.0.0","130864","pucqcvz241h","badger","<div style=""font-size:60px;"">+</div>","null","","",""
"","null","html-keyboard-response","82","2.0.0","132366","pucqcvz241h","badger","<p>hospital</p>","null","","",""
"","null","html-keyboard-response","83","2.0.0","133369","pucqcvz241h","badger","<div style=""font-size:60px;"">+</div>","null","","",""
"","null","html-keyboard-response","84","2.0.0","134871","pucqcvz241h","badger","<p>physician</p>","null","","",""
"","null","html-keyboard-response","85","2.0.0","135874","pucqcvz241h","badger","<div style=""font-size:60px;"">+</div>","null","","",""
"","null","html-keyboard-response","86","2.0.0","137377","pucqcvz241h","badger","<p>patient</p>","null","","",""
"","null","html-keyboard-response","87","2.0.0","138379","pucqcvz241h","badger","<div style=""font-size:60px;"">+</div>","null","","",""
"","null","html-keyboard-response","88","2.0.0","139882","pucqcvz241h","badger","<p>sick</p>","null","","",""
"","null","html-keyboard-response","89","2.0.0","140885","pucqcvz241h","badger","<div style=""font-size:60px;"">+</div>","null","","",""
"","null","html-keyboard-response","90","2.0.0","142387","pucqcvz241h","badger","<p>ill</p>","null","","",""
"","null","html-keyboard-response","91","2.0.0","143389","pucqcvz241h","badger","<div style=""font-size:60px;"">+</div>","null","","",""
"","null","html-keyboard-response","92","2.0.0","144891","pucqcvz241h","badger","<p>medicine</p>","null","","",""
"","null","html-keyboard-response","93","2.0.0","145894","pucqcvz241h","badger","<div style=""font-size:60px;"">+</div>","null","","",""
"","null","html-keyboard-response","94","2.0.0","147398","pucqcvz241h","badger","<p>stethoscope</p>","null","","",""
"","null","html-keyboard-response","95","2.0.0","148401","pucqcvz241h","badger","<div style=""font-size:60px;"">+</div>","null","","",""
"","null","html-keyboard-response","96","2.0.0","149906","pucqcvz241h","badger","<p>nurse</p>","null","","",""
"","null","html-keyboard-response","97","2.0.0","150908","pucqcvz241h","badger","<div style=""font-size:60px;"">+</div>","null","","",""
"","null","html-keyboard-response","98","2.0.0","152410","pucqcvz241h","badger","<p>health</p>","null","","",""
"","null","html-keyboard-response","99","2.0.0","153413","pucqcvz241h","badger","<div style=""font-size:60px;"">+</div>","null","","",""
"","null","html-keyboard-response","100","2.0.0","154915","pucqcvz241h","badger","<p>lawyer</p>","null","","",""
"","null","html-keyboard-response","101","2.0.0","155917","pucqcvz241h","badger","<div style=""font-size:60px;"">+</div>","null","","",""
"","null","html-keyboard-response","102","2.0.0","157420","pucqcvz241h","badger","<p>dentist</p>","null","","",""
"","null","html-keyboard-response","103","2.0.0","159423","pucqcvz241h","badger","<h3>List 5 </h3>","null","","",""
"","null","html-keyboard-response","104","2.0.0","160426","pucqcvz241h","badger","<div style=""font-size:60px;"">+</div>","null","","",""
"","null","html-keyboard-response","105","2.0.0","161928","pucqcvz241h","badger","<p>rye</p>","null","","",""
"","null","html-keyboard-response","106","2.0.0","162930","pucqcvz241h","badger","<div style=""font-size:60px;"">+</div>","null","","",""
"","null","html-keyboard-response","107","2.0.0","164440","pucqcvz241h","badger","<p>jam</p>","null","","",""
"","null","html-keyboard-response","108","2.0.0","165442","pucqcvz241h","badger","<div style=""font-size:60px;"">+</div>","null","","",""
"","null","html-keyboard-response","109","2.0.0","166944","pucqcvz241h","badger","<p>sandwich</p>","null","","",""
"","null","html-keyboard-response","110","2.0.0","167946","pucqcvz241h","badger","<div style=""font-size:60px;"">+</div>","null","","",""
"","null","html-keyboard-response","111","2.0.0","169448","pucqcvz241h","badger","<p>butter</p>","null","","",""
"","null","html-keyboard-response","112","2.0.0","170451","pucqcvz241h","badger","<div style=""font-size:60px;"">+</div>","null","","",""
"","null","html-keyboard-response","113","2.0.0","171954","pucqcvz241h","badger","<p>milk</p>","null","","",""
"","null","html-keyboard-response","114","2.0.0","172956","pucqcvz241h","badger","<div style=""font-size:60px;"">+</div>","null","","",""
"","null","html-keyboard-response","115","2.0.0","174459","pucqcvz241h","badger","<p>crust</p>","null","","",""
"","null","html-keyboard-response","116","2.0.0","175461","pucqcvz241h","badger","<div style=""font-size:60px;"">+</div>","null","","",""
"","null","html-keyboard-response","117","2.0.0","176963","pucqcvz241h","badger","<p>flour</p>","null","","",""
"","null","html-keyboard-response","118","2.0.0","177966","pucqcvz241h","badger","<div style=""font-size:60px;"">+</div>","null","","",""
"","null","html-keyboard-response","119","2.0.0","179469","pucqcvz241h","badger","<p>eat</p>","null","","",""
"","null","html-keyboard-response","120","2.0.0","180471","pucqcvz241h","badger","<div style=""font-size:60px;"">+</div>","null","","",""
"","null","html-keyboard-response","121","2.0.0","181974","pucqcvz241h","badger","<p>food</p>","null","","",""
"","null","html-keyboard-response","122","2.0.0","182978","pucqcvz241h","badger","<div style=""font-size:60px;"">+</div>","null","","",""
"","null","html-keyboard-response","123","2.0.0","184480","pucqcvz241h","badger","<p>dough</p>","null","","",""
"","null","html-keyboard-response","124","2.0.0","185483","pucqcvz241h","badger","<div style=""font-size:60px;"">+</div>","null","","",""
"","null","html-keyboard-response","125","2.0.0","186985","pucqcvz241h","badger","<p>slice</p>","null","","",""
"","null","html-keyboard-response","126","2.0.0","187986","pucqcvz241h","badger","<div style=""font-size:60px;"">+</div>","null","","",""
"","null","html-keyboard-response","127","2.0.0","189490","pucqcvz241h","badger","<p>jelly</p>","null","","",""
"","null","html-keyboard-response","128","2.0.0","191492","pucqcvz241h","badger","<h3>List 6 </h3>","null","","",""
"","null","html-keyboard-response","129","2.0.0","192495","pucqcvz241h","badger","<div style=""font-size:60px;"">+</div>","null","","",""
"","null","html-keyboard-response","130","2.0.0","193997","pucqcvz241h","badger","<p>freeze</p>","null","","",""
"","null","html-keyboard-response","131","2.0.0","195000","pucqcvz241h","badger","<div style=""font-size:60px;"">+</div>","null","","",""
"","null","html-keyboard-response","132","2.0.0","196502","pucqcvz241h","badger","<p>weather</p>","null","","",""
"","null","html-keyboard-response","133","2.0.0","197504","pucqcvz241h","badger","<div style=""font-size:60px;"">+</div>","null","","",""
"","null","html-keyboard-response","134","2.0.0","199007","pucqcvz241h","badger","<p>ice</p>","null","","",""
"","null","html-keyboard-response","135","2.0.0","200009","pucqcvz241h","badger","<div style=""font-size:60px;"">+</div>","null","","",""
"","null","html-keyboard-response","136","2.0.0","201512","pucqcvz241h","badger","<p>warm</p>","null","","",""
"","null","html-keyboard-response","137","2.0.0","202515","pucqcvz241h","badger","<div style=""font-size:60px;"">+</div>","null","","",""
"","null","html-keyboard-response","138","2.0.0","204018","pucqcvz241h","badger","<p>snow</p>","null","","",""
"","null","html-keyboard-response","139","2.0.0","205021","pucqcvz241h","badger","<div style=""font-size:60px;"">+</div>","null","","",""
"","null","html-keyboard-response","140","2.0.0","206524","pucqcvz241h","badger","<p>hot</p>","null","","",""
"","null","html-keyboard-response","141","2.0.0","207526","pucqcvz241h","badger","<div style=""font-size:60px;"">+</div>","null","","",""
"","null","html-keyboard-response","142","2.0.0","209028","pucqcvz241h","badger","<p>heat</p>","null","","",""
"","null","html-keyboard-response","143","2.0.0","210030","pucqcvz241h","badger","<div style=""font-size:60px;"">+</div>","null","","",""
"","null","html-keyboard-response","144","2.0.0","211533","pucqcvz241h","badger","<p>air</p>","null","","",""
"","null","html-keyboard-response","145","2.0.0","212536","pucqcvz241h","badger","<div style=""font-size:60px;"">+</div>","null","","",""
"","null","html-keyboard-response","146","2.0.0","214039","pucqcvz241h","badger","<p>winter</p>","null","","",""
"","null","html-keyboard-response","147","2.0.0","215041","pucqcvz241h","badger","<div style=""font-size:60px;"">+</div>","null","","",""
"","null","html-keyboard-response","148","2.0.0","216545","pucqcvz241h","badger","<p>frigid</p>","null","","",""
"","null","html-keyboard-response","149","2.0.0","217547","pucqcvz241h","badger","<div style=""font-size:60px;"">+</div>","null","","",""
"","null","html-keyboard-response","150","2.0.0","219050","pucqcvz241h","badger","<p>chilly</p>","null","","",""
"","null","html-keyboard-response","151","2.0.0","220053","pucqcvz241h","badger","<div style=""font-size:60px;"">+</div>","null","","",""
"","null","html-keyboard-response","152","2.0.0","221556","pucqcvz241h","badger","<p>wet</p>","null","","",""
"","1886","html-keyboard-response","153","2.0.0","223442","pucqcvz241h","badger","Now you will rate your confidence that each word occurred on the list. <p>Please indicate whether you think the word was definitely new, probably new, probably old, or definitely old.</p> <p>Press any key to continue.</P>"," ","","",""
"","5023","survey-likert","154","null","228471","pucqcvz241h","badger","","{""Q0"":3}","conflict","recognition","[0]"
"","3376","survey-likert","155","null","231849","pucqcvz241h","badger","","{""Q0"":3}","oven","recognition","[0]"
"","5601","survey-likert","156","null","237451","pucqcvz241h","badger","","{""Q0"":1}","procedure","recognition","[0]"
"","3398","survey-likert","157","null","240851","pucqcvz241h","badger","","{""Q0"":3}","patient","recognition","[0]"
"","5198","survey-likert","158","null","246051","pucqcvz241h","badger","","{""Q0"":0}","chair","recognition","[0]"
"","2234","survey-likert","159","null","248287","pucqcvz241h","badger","","{""Q0"":1}","anger","recognition","[0]"
"","3130","survey-likert","160","null","251419","pucqcvz241h","badger","","{""Q0"":0}","balance","recognition","[0]"
"","9830","survey-likert","161","null","261251","pucqcvz241h","badger","","{""Q0"":3}","couch","recognition","[0]"
"","3649","survey-likert","162","null","264901","pucqcvz241h","badger","","{""Q0"":2}","drift","recognition","[0]"
"","1465","survey-likert","163","null","266368","pucqcvz241h","badger","","{""Q0"":2}","clock","recognition","[0]"
"","2248","survey-likert","164","null","268618","pucqcvz241h","badger","","{""Q0"":1}","void","recognition","[0]"
"","1615","survey-likert","165","null","270234","pucqcvz241h","badger","","{""Q0"":2}","milk","recognition","[0]"
"","2381","survey-likert","166","null","272618","pucqcvz241h","badger","","{""Q0"":2}","jam","recognition","[0]"
"","1414","survey-likert","167","null","274033","pucqcvz241h","badger","","{""Q0"":3}","river","recognition","[0]"
"","1416","survey-likert","168","null","275452","pucqcvz241h","badger","","{""Q0"":3}","mountain","recognition","[0]"
"","2298","survey-likert","169","null","277751","pucqcvz241h","badger","","{""Q0"":3}","frigid","recognition","[0]"
"","2996","survey-likert","170","null","280749","pucqcvz241h","badger","","{""Q0"":0}","lighthouse","recognition","[0]"
"","1699","survey-likert","171","null","282450","pucqcvz241h","badger","","{""Q0"":0}","cold","recognition","[0]"
"","1367","survey-likert","172","null","283818","pucqcvz241h","badger","","{""Q0"":1}","planet","recognition","[0]"
"","1616","survey-likert","173","null","285435","pucqcvz241h","badger","","{""Q0"":2}","book","recognition","[0]"
"","1581","survey-likert","174","null","287018","pucqcvz241h","badger","","{""Q0"":3}","funeral","recognition","[0]"
"","2532","survey-likert","175","null","289551","pucqcvz241h","badger","","{""Q0"":0}","balloon","recognition","[0]"
"","1881","survey-likert","176","null","291435","pucqcvz241h","badger","","{""Q0"":1}","noise","recognition","[0]"
"","2148","survey-likert","177","null","293585","pucqcvz241h","badger","","{""Q0"":1}","window","recognition","[0]"
"","1613","survey-likert","178","null","295201","pucqcvz241h","badger","","{""Q0"":1}","frame","recognition","[0]"
"","2432","survey-likert","179","null","297633","pucqcvz241h","badger","","{""Q0"":1}","table","recognition","[0]"
"","3283","survey-likert","180","null","300918","pucqcvz241h","badger","","{""Q0"":2}","doctor","recognition","[0]"
"","1766","survey-likert","181","null","302685","pucqcvz241h","badger","","{""Q0"":2}","camera","recognition","[0]"
"","2614","survey-likert","182","null","305302","pucqcvz241h","badger","","{""Q0"":3}","hatred","recognition","[0]"
"","4631","survey-likert","183","null","309935","pucqcvz241h","badger","","{""Q0"":1}","black","recognition","[0]"
"","2498","survey-likert","184","null","312435","pucqcvz241h","badger","","{""Q0"":3}","elephant","recognition","[0]"
"","3432","survey-likert","185","null","315868","pucqcvz241h","badger","","{""Q0"":0}","bread","recognition","[0]"
"","2031","survey-likert","186","null","317902","pucqcvz241h","badger","","{""Q0"":2}","basket","recognition","[0]"
"","2148","survey-likert","187","null","320052","pucqcvz241h","badger","","{""Q0"":1}","curtain","recognition","[0]"
"","2465","survey-likert","188","null","322519","pucqcvz241h","badger","","{""Q0"":3}","physician","recognition","[0]"
"","2081","survey-likert","189","null","324601","pucqcvz241h","badger","","{""Q0"":2}","night","recognition","[0]"
"","1816","survey-likert","190","null","326418","pucqcvz241h","badger","","{""Q0"":3}","winter","recognition","[0]"
"","1948","survey-likert","191","null","328368","pucqcvz241h","badger","","{""Q0"":0}","attention","recognition","[0]"
"","2081","survey-likert","192","null","330452","pucqcvz241h","badger","","{""Q0"":1}","shade","recognition","[0]"
"","1415","survey-likert","193","null","331869","pucqcvz241h","badger","","{""Q0"":3}","guitar","recognition","[0]"
"","1264","survey-likert","194","null","333134","pucqcvz241h","badger","","{""Q0"":2}","laptop","recognition","[0]"
"","2365","survey-likert","195","null","335501","pucqcvz241h","badger","","{""Q0"":3}","fury","recognition","[0]"
"","9575","survey-text","196","2.0.0","345090","pucqcvz241h","badger","","{""age"":""22"",""gender"":""male"",""Q2"":""recall"",""Q3"":""no\n\n\n""}","","",""
