"success","rt","trial_type","trial_index","plugin_version","time_elapsed","random_id","participant","stimulus","response","word","type","question_order"
"true","3363","fullscreen","0","null","4371","pum1brnt9an","cricket","","","","",""
"","32164","html-keyboard-response","1","2.0.0","36535","pum1brnt9an","cricket","Welcome to the Fasle Recall Experiment.<p>You will see and listen to 6 lists of 12-words one at a time. Try to remember as many as you can.</p><p>After the list, you’ll be asked to complete a recognition test.</p><p>Press any key to begin.</p>"," ","","",""
"","6148","survey-text","2","2.0.0","42686","pum1brnt9an","cricket","","{""participant_id"":""cricket""}","","",""
"","null","html-keyboard-response","3","2.0.0","44688","pum1brnt9an","cricket","<h3>List 1 </h3>","null","","",""
"","null","html-keyboard-response","4","2.0.0","45690","pum1brnt9an","cricket","<div style=""font-size:60px;"">+</div>","null","","",""
"","null","html-keyboard-response","5","2.0.0","47191","pum1brnt9an","cricket","<p>couch</p>","null","","",""
"","null","html-keyboard-response","6","2.0.0","48194","pum1brnt9an","cricket","<div style=""font-size:60px;"">+</div>","null","","",""
"","null","html-keyboard-response","7","2.0.0","49697","pum1brnt9an","cricket","<p>wood</p>","null","","",""
"","null","html-keyboard-response","8","2.0.0","50700","pum1brnt9an","cricket","<div style=""font-size:60px;"">+</div>","null","","",""
"","null","html-keyboard-response","9","2.0.0","52203","pum1brnt9an","cricket","<p>recliner</p>","null","","",""
"","null","html-keyboard-response","10","2.0.0","53205","pum1brnt9an","cricket","<div style=""font-size:60px;"">+</div>","null","","",""
"","null","html-keyboard-response","11","2.0.0","54707","pum1brnt9an","cricket","<p>table</p>","null","","",""
"","null","html-keyboard-response","12","2.0.0","55709","pum1brnt9an","cricket","<div style=""font-size:60px;"">+</div>","null","","",""
"","null","html-keyboard-response","13","2.0.0","57210","pum1brnt9an","cricket","<p>sofa</p>","null","","",""
"","null","html-keyboard-response","14","2.0.0","58213","pum1brnt9an","cricket","<div style=""font-size:60px;"">+</div>","null","","",""
"","null","html-keyboard-response","15","2.0.0","59715","pum1brnt9an","cricket","<p>cushion</p>","null","","",""
"","null","html-keyboard-response","16","2.0.0","60717","pum1brnt9an","cricket","<div style=""font-size:60px;"">+</div>","null","","",""
"","null","html-keyboard-response","17","2.0.0","62219","pum1brnt9an","cricket","<p>legs</p>","null","","",""
"","null","html-keyboard-response","18","2.0.0","63221","pum1brnt9an","cricket","<div style=""font-size:60px;"">+</div>","null","","",""
"","null","html-keyboard-response","19","2.0.0","64724","pum1brnt9an","cricket","<p>stool</p>","null","","",""
"","null","html-keyboard-response","20","2.0.0","65726","pum1brnt9an","cricket","<div style=""font-size:60px;"">+</div>","null","","",""
"","null","html-keyboard-response","21","2.0.0","67229","pum1brnt9an","cricket","<p>desk</p>","null","","",""
"","null","html-keyboard-response","22","2.0.0","68232","pum1brnt9an","cricket","<div style=""font-size:60px;"">+</div>","null","","",""
"","null","html-keyboard-response","23","2.0.0","69733","pum1brnt9an","cricket","<p>seat</p>","null","","",""
"","null","html-keyboard-response","24","2.0.0","70734","pum1brnt9an","cricket","<div style=""font-size:60px;"">+</div>","null","","",""
"","null","html-keyboard-response","25","2.0.0","72237","pum1brnt9an","cricket","<p>swivel</p>","null","","",""
"","null","html-keyboard-response","26","2.0.0","73239","pum1brnt9an","cricket","<div style=""font-size:60px;"">+</div>","null","","",""
"","null","html-keyboard-response","27","2.0.0","74741","pum1brnt9an","cricket","<p>sit</p>","null","","",""
"","null","html-keyboard-response","28","2.0.0","76743","pum1brnt9an","cricket","<h3>List 2 </h3>","null","","",""
"","null","html-keyboard-response","29","2.0.0","77744","pum1brnt9an","cricket","<div style=""font-size:60px;"">+</div>","null","","",""
"","null","html-keyboard-response","30","2.0.0","79246","pum1brnt9an","cricket","<p>dentist</p>","null","","",""
"","null","html-keyboard-response","31","2.0.0","80249","pum1brnt9an","cricket","<div style=""font-size:60px;"">+</div>","null","","",""
"","null","html-keyboard-response","32","2.0.0","81750","pum1brnt9an","cricket","<p>ill</p>","null","","",""
"","null","html-keyboard-response","33","2.0.0","82752","pum1brnt9an","cricket","<div style=""font-size:60px;"">+</div>","null","","",""
"","null","html-keyboard-response","34","2.0.0","84253","pum1brnt9an","cricket","<p>stethoscope</p>","null","","",""
"","null","html-keyboard-response","35","2.0.0","85255","pum1brnt9an","cricket","<div style=""font-size:60px;"">+</div>","null","","",""
"","null","html-keyboard-response","36","2.0.0","86757","pum1brnt9an","cricket","<p>sick</p>","null","","",""
"","null","html-keyboard-response","37","2.0.0","87759","pum1brnt9an","cricket","<div style=""font-size:60px;"">+</div>","null","","",""
"","null","html-keyboard-response","38","2.0.0","89261","pum1brnt9an","cricket","<p>medicine</p>","null","","",""
"","null","html-keyboard-response","39","2.0.0","90262","pum1brnt9an","cricket","<div style=""font-size:60px;"">+</div>","null","","",""
"","null","html-keyboard-response","40","2.0.0","91763","pum1brnt9an","cricket","<p>health</p>","null","","",""
"","null","html-keyboard-response","41","2.0.0","92765","pum1brnt9an","cricket","<div style=""font-size:60px;"">+</div>","null","","",""
"","null","html-keyboard-response","42","2.0.0","94266","pum1brnt9an","cricket","<p>hospital</p>","null","","",""
"","null","html-keyboard-response","43","2.0.0","95268","pum1brnt9an","cricket","<div style=""font-size:60px;"">+</div>","null","","",""
"","null","html-keyboard-response","44","2.0.0","96770","pum1brnt9an","cricket","<p>patient</p>","null","","",""
"","null","html-keyboard-response","45","2.0.0","97772","pum1brnt9an","cricket","<div style=""font-size:60px;"">+</div>","null","","",""
"","null","html-keyboard-response","46","2.0.0","99275","pum1brnt9an","cricket","<p>office</p>","null","","",""
"","null","html-keyboard-response","47","2.0.0","100277","pum1brnt9an","cricket","<div style=""font-size:60px;"">+</div>","null","","",""
"","null","html-keyboard-response","48","2.0.0","101778","pum1brnt9an","cricket","<p>lawyer</p>","null","","",""
"","null","html-keyboard-response","49","2.0.0","102781","pum1brnt9an","cricket","<div style=""font-size:60px;"">+</div>","null","","",""
"","null","html-keyboard-response","50","2.0.0","104282","pum1brnt9an","cricket","<p>nurse</p>","null","","",""
"","null","html-keyboard-response","51","2.0.0","105285","pum1brnt9an","cricket","<div style=""font-size:60px;"">+</div>","null","","",""
"","null","html-keyboard-response","52","2.0.0","106787","pum1brnt9an","cricket","<p>physician</p>","null","","",""
"","null","html-keyboard-response","53","2.0.0","108790","pum1brnt9an","cricket","<h3>List 3 </h3>","null","","",""
"","null","html-keyboard-response","54","2.0.0","109792","pum1brnt9an","cricket","<div style=""font-size:60px;"">+</div>","null","","",""
"","null","html-keyboard-response","55","2.0.0","111293","pum1brnt9an","cricket","<p>jam</p>","null","","",""
"","null","html-keyboard-response","56","2.0.0","112295","pum1brnt9an","cricket","<div style=""font-size:60px;"">+</div>","null","","",""
"","null","html-keyboard-response","57","2.0.0","113797","pum1brnt9an","cricket","<p>eat</p>","null","","",""
"","null","html-keyboard-response","58","2.0.0","114799","pum1brnt9an","cricket","<div style=""font-size:60px;"">+</div>","null","","",""
"","null","html-keyboard-response","59","2.0.0","116301","pum1brnt9an","cricket","<p>dough</p>","null","","",""
"","null","html-keyboard-response","60","2.0.0","117304","pum1brnt9an","cricket","<div style=""font-size:60px;"">+</div>","null","","",""
"","null","html-keyboard-response","61","2.0.0","118807","pum1brnt9an","cricket","<p>butter</p>","null","","",""
"","null","html-keyboard-response","62","2.0.0","119810","pum1brnt9an","cricket","<div style=""font-size:60px;"">+</div>","null","","",""
"","null","html-keyboard-response","63","2.0.0","121311","pum1brnt9an","cricket","<p>crust</p>","null","","",""
"","null","html-keyboard-response","64","2.0.0","122313","pum1brnt9an","cricket","<div style=""font-size:60px;"">+</div>","null","","",""
"","null","html-keyboard-response","65","2.0.0","123816","pum1brnt9an","cricket","<p>food</p>","null","","",""
"","null","html-keyboard-response","66","2.0.0","124817","pum1brnt9an","cricket","<div style=""font-size:60px;"">+</div>","null","","",""
"","null","html-keyboard-response","67","2.0.0","126319","pum1brnt9an","cricket","<p>jelly</p>","null","","",""
"","null","html-keyboard-response","68","2.0.0","127322","pum1brnt9an","cricket","<div style=""font-size:60px;"">+</div>","null","","",""
"","null","html-keyboard-response","69","2.0.0","128824","pum1brnt9an","cricket","<p>milk</p>","null","","",""
"","null","html-keyboard-response","70","2.0.0","129826","pum1brnt9an","cricket","<div style=""font-size:60px;"">+</div>","null","","",""
"","null","html-keyboard-response","71","2.0.0","131328","pum1brnt9an","cricket","<p>rye</p>","null","","",""
"","null","html-keyboard-response","72","2.0.0","132331","pum1brnt9an","cricket","<div style=""font-size:60px;"">+</div>","null","","",""
"","null","html-keyboard-response","73","2.0.0","133832","pum1brnt9an","cricket","<p>sandwich</p>","null","","",""
"","null","html-keyboard-response","74","2.0.0","134833","pum1brnt9an","cricket","<div style=""font-size:60px;"">+</div>","null","","",""
"","null","html-keyboard-response","75","2.0.0","136335","pum1brnt9an","cricket","<p>slice</p>","null","","",""
"","null","html-keyboard-response","76","2.0.0","137337","pum1brnt9an","cricket","<div style=""font-size:60px;"">+</div>","null","","",""
"","null","html-keyboard-response","77","2.0.0","138839","pum1brnt9an","cricket","<p>flour</p>","null","","",""
"","null","html-keyboard-response","78","2.0.0","140842","pum1brnt9an","cricket","<h3>List 4 </h3>","null","","",""
"","null","html-keyboard-response","79","2.0.0","141843","pum1brnt9an","cricket","<div style=""font-size:60px;"">+</div>","null","","",""
"","null","html-keyboard-response","80","2.0.0","143345","pum1brnt9an","cricket","<p>warm</p>","null","","",""
"","null","html-keyboard-response","81","2.0.0","144347","pum1brnt9an","cricket","<div style=""font-size:60px;"">+</div>","null","","",""
"","null","html-keyboard-response","82","2.0.0","145849","pum1brnt9an","cricket","<p>freeze</p>","null","","",""
"","null","html-keyboard-response","83","2.0.0","146852","pum1brnt9an","cricket","<div style=""font-size:60px;"">+</div>","null","","",""
"","null","html-keyboard-response","84","2.0.0","148354","pum1brnt9an","cricket","<p>weather</p>","null","","",""
"","null","html-keyboard-response","85","2.0.0","149355","pum1brnt9an","cricket","<div style=""font-size:60px;"">+</div>","null","","",""
"","null","html-keyboard-response","86","2.0.0","150857","pum1brnt9an","cricket","<p>ice</p>","null","","",""
"","null","html-keyboard-response","87","2.0.0","151860","pum1brnt9an","cricket","<div style=""font-size:60px;"">+</div>","null","","",""
"","null","html-keyboard-response","88","2.0.0","153362","pum1brnt9an","cricket","<p>winter</p>","null","","",""
"","null","html-keyboard-response","89","2.0.0","154364","pum1brnt9an","cricket","<div style=""font-size:60px;"">+</div>","null","","",""
"","null","html-keyboard-response","90","2.0.0","155866","pum1brnt9an","cricket","<p>heat</p>","null","","",""
"","null","html-keyboard-response","91","2.0.0","156868","pum1brnt9an","cricket","<div style=""font-size:60px;"">+</div>","null","","",""
"","null","html-keyboard-response","92","2.0.0","158370","pum1brnt9an","cricket","<p>air</p>","null","","",""
"","null","html-keyboard-response","93","2.0.0","159373","pum1brnt9an","cricket","<div style=""font-size:60px;"">+</div>","null","","",""
"","null","html-keyboard-response","94","2.0.0","160874","pum1brnt9an","cricket","<p>hot</p>","null","","",""
"","null","html-keyboard-response","95","2.0.0","161876","pum1brnt9an","cricket","<div style=""font-size:60px;"">+</div>","null","","",""
"","null","html-keyboard-response","96","2.0.0","163379","pum1brnt9an","cricket","<p>chilly</p>","null","","",""
"","null","html-keyboard-response","97","2.0.0","164381","pum1brnt9an","cricket","<div style=""font-size:60px;"">+</div>","null","","",""
"","null","html-keyboard-response","98","2.0.0","165883","pum1brnt9an","cricket","<p>frigid</p>","null","","",""
"","null","html-keyboard-response","99","2.0.0","166885","pum1brnt9an","cricket","<div style=""font-size:60px;"">+</div>","null","","",""
"","null","html-keyboard-response","100","2.0.0","168387","pum1brnt9an","cricket","<p>wet</p>","null","","",""
"","null","html-keyboard-response","101","2.0.0","169388","pum1brnt9an","cricket","<div style=""font-size:60px;"">+</div>","null","","",""
"","null","html-keyboard-response","102","2.0.0","170889","pum1brnt9an","cricket","<p>snow</p>","null","","",""
"","null","html-keyboard-response","103","2.0.0","172891","pum1brnt9an","cricket","<h3>List 5 </h3>","null","","",""
"","null","html-keyboard-response","104","2.0.0","173893","pum1brnt9an","cricket","<div style=""font-size:60px;"">+</div>","null","","",""
"","null","html-keyboard-response","105","2.0.0","175395","pum1brnt9an","cricket","<p>hatred</p>","null","","",""
"","null","html-keyboard-response","106","2.0.0","176396","pum1brnt9an","cricket","<div style=""font-size:60px;"">+</div>","null","","",""
"","null","html-keyboard-response","107","2.0.0","177898","pum1brnt9an","cricket","<p>wrath</p>","null","","",""
"","null","html-keyboard-response","108","2.0.0","178900","pum1brnt9an","cricket","<div style=""font-size:60px;"">+</div>","null","","",""
"","null","html-keyboard-response","109","2.0.0","180402","pum1brnt9an","cricket","<p>mean</p>","null","","",""
"","null","html-keyboard-response","110","2.0.0","181404","pum1brnt9an","cricket","<div style=""font-size:60px;"">+</div>","null","","",""
"","null","html-keyboard-response","111","2.0.0","182907","pum1brnt9an","cricket","<p>ire</p>","null","","",""
"","null","html-keyboard-response","112","2.0.0","183909","pum1brnt9an","cricket","<div style=""font-size:60px;"">+</div>","null","","",""
"","null","html-keyboard-response","113","2.0.0","185411","pum1brnt9an","cricket","<p>temper</p>","null","","",""
"","null","html-keyboard-response","114","2.0.0","186412","pum1brnt9an","cricket","<div style=""font-size:60px;"">+</div>","null","","",""
"","null","html-keyboard-response","115","2.0.0","187915","pum1brnt9an","cricket","<p>fear</p>","null","","",""
"","null","html-keyboard-response","116","2.0.0","188916","pum1brnt9an","cricket","<div style=""font-size:60px;"">+</div>","null","","",""
"","null","html-keyboard-response","117","2.0.0","190418","pum1brnt9an","cricket","<p>mad</p>","null","","",""
"","null","html-keyboard-response","118","2.0.0","191420","pum1brnt9an","cricket","<div style=""font-size:60px;"">+</div>","null","","",""
"","null","html-keyboard-response","119","2.0.0","192922","pum1brnt9an","cricket","<p>happy</p>","null","","",""
"","null","html-keyboard-response","120","2.0.0","193923","pum1brnt9an","cricket","<div style=""font-size:60px;"">+</div>","null","","",""
"","null","html-keyboard-response","121","2.0.0","195425","pum1brnt9an","cricket","<p>hate</p>","null","","",""
"","null","html-keyboard-response","122","2.0.0","196427","pum1brnt9an","cricket","<div style=""font-size:60px;"">+</div>","null","","",""
"","null","html-keyboard-response","123","2.0.0","197929","pum1brnt9an","cricket","<p>fury</p>","null","","",""
"","null","html-keyboard-response","124","2.0.0","198931","pum1brnt9an","cricket","<div style=""font-size:60px;"">+</div>","null","","",""
"","null","html-keyboard-response","125","2.0.0","200433","pum1brnt9an","cricket","<p>fight</p>","null","","",""
"","null","html-keyboard-response","126","2.0.0","201436","pum1brnt9an","cricket","<div style=""font-size:60px;"">+</div>","null","","",""
"","null","html-keyboard-response","127","2.0.0","202938","pum1brnt9an","cricket","<p>rage</p>","null","","",""
"","null","html-keyboard-response","128","2.0.0","204940","pum1brnt9an","cricket","<h3>List 6 </h3>","null","","",""
"","null","html-keyboard-response","129","2.0.0","205942","pum1brnt9an","cricket","<div style=""font-size:60px;"">+</div>","null","","",""
"","null","html-keyboard-response","130","2.0.0","207443","pum1brnt9an","cricket","<p>charred</p>","null","","",""
"","null","html-keyboard-response","131","2.0.0","208445","pum1brnt9an","cricket","<div style=""font-size:60px;"">+</div>","null","","",""
"","null","html-keyboard-response","132","2.0.0","209947","pum1brnt9an","cricket","<p>bottom</p>","null","","",""
"","null","html-keyboard-response","133","2.0.0","210948","pum1brnt9an","cricket","<div style=""font-size:60px;"">+</div>","null","","",""
"","null","html-keyboard-response","134","2.0.0","212450","pum1brnt9an","cricket","<p>funeral</p>","null","","",""
"","null","html-keyboard-response","135","2.0.0","213451","pum1brnt9an","cricket","<div style=""font-size:60px;"">+</div>","null","","",""
"","null","html-keyboard-response","136","2.0.0","214952","pum1brnt9an","cricket","<p>night</p>","null","","",""
"","null","html-keyboard-response","137","2.0.0","215954","pum1brnt9an","cricket","<div style=""font-size:60px;"">+</div>","null","","",""
"","null","html-keyboard-response","138","2.0.0","217456","pum1brnt9an","cricket","<p>blue</p>","null","","",""
"","null","html-keyboard-response","139","2.0.0","218458","pum1brnt9an","cricket","<div style=""font-size:60px;"">+</div>","null","","",""
"","null","html-keyboard-response","140","2.0.0","219959","pum1brnt9an","cricket","<p>ink</p>","null","","",""
"","null","html-keyboard-response","141","2.0.0","220962","pum1brnt9an","cricket","<div style=""font-size:60px;"">+</div>","null","","",""
"","null","html-keyboard-response","142","2.0.0","222463","pum1brnt9an","cricket","<p>color</p>","null","","",""
"","null","html-keyboard-response","143","2.0.0","223465","pum1brnt9an","cricket","<div style=""font-size:60px;"">+</div>","null","","",""
"","null","html-keyboard-response","144","2.0.0","224967","pum1brnt9an","cricket","<p>dark</p>","null","","",""
"","null","html-keyboard-response","145","2.0.0","225968","pum1brnt9an","cricket","<div style=""font-size:60px;"">+</div>","null","","",""
"","null","html-keyboard-response","146","2.0.0","227470","pum1brnt9an","cricket","<p>white</p>","null","","",""
"","null","html-keyboard-response","147","2.0.0","228471","pum1brnt9an","cricket","<div style=""font-size:60px;"">+</div>","null","","",""
"","null","html-keyboard-response","148","2.0.0","229974","pum1brnt9an","cricket","<p>death</p>","null","","",""
"","null","html-keyboard-response","149","2.0.0","230976","pum1brnt9an","cricket","<div style=""font-size:60px;"">+</div>","null","","",""
"","null","html-keyboard-response","150","2.0.0","232477","pum1brnt9an","cricket","<p>grief</p>","null","","",""
"","null","html-keyboard-response","151","2.0.0","233480","pum1brnt9an","cricket","<div style=""font-size:60px;"">+</div>","null","","",""
"","null","html-keyboard-response","152","2.0.0","234981","pum1brnt9an","cricket","<p>cat</p>","null","","",""
"","9441","html-keyboard-response","153","2.0.0","244422","pum1brnt9an","cricket","Now you will rate your confidence that each word occurred on the list. <p>Please indicate whether you think the word was definitely new, probably new, probably old, or definitely old.</p> <p>Press any key to continue.</P>"," ","","",""
"","5454","survey-likert","154","null","249879","pum1brnt9an","cricket","","{""Q0"":2}","anger","recognition","[0]"
"","4331","survey-likert","155","null","254214","pum1brnt9an","cricket","","{""Q0"":3}","dentist","recognition","[0]"
"","2989","survey-likert","156","null","257206","pum1brnt9an","cricket","","{""Q0"":3}","seat","recognition","[0]"
"","3331","survey-likert","157","null","260540","pum1brnt9an","cricket","","{""Q0"":0}","void","recognition","[0]"
"","3899","survey-likert","158","null","264442","pum1brnt9an","cricket","","{""Q0"":0}","planet","recognition","[0]"
"","4192","survey-likert","159","null","268637","pum1brnt9an","cricket","","{""Q0"":1}","bread","recognition","[0]"
"","3254","survey-likert","160","null","271894","pum1brnt9an","cricket","","{""Q0"":2}","conflict","recognition","[0]"
"","7329","survey-likert","161","null","279226","pum1brnt9an","cricket","","{""Q0"":3}","sofa","recognition","[0]"
"","4242","survey-likert","162","null","283472","pum1brnt9an","cricket","","{""Q0"":2}","doctor","recognition","[0]"
"","3782","survey-likert","163","null","287259","pum1brnt9an","cricket","","{""Q0"":0}","laptop","recognition","[0]"
"","2096","survey-likert","164","null","289358","pum1brnt9an","cricket","","{""Q0"":0}","procedure","recognition","[0]"
"","1980","survey-likert","165","null","291342","pum1brnt9an","cricket","","{""Q0"":0}","lighthouse","recognition","[0]"
"","1958","survey-likert","166","null","293303","pum1brnt9an","cricket","","{""Q0"":0}","balance","recognition","[0]"
"","3457","survey-likert","167","null","296763","pum1brnt9an","cricket","","{""Q0"":1}","eat","recognition","[0]"
"","1959","survey-likert","168","null","298725","pum1brnt9an","cricket","","{""Q0"":1}","clock","recognition","[0]"
"","3429","survey-likert","169","null","302157","pum1brnt9an","cricket","","{""Q0"":3}","hospital","recognition","[0]"
"","3255","survey-likert","170","null","305414","pum1brnt9an","cricket","","{""Q0"":1}","curtain","recognition","[0]"
"","2997","survey-likert","171","null","308415","pum1brnt9an","cricket","","{""Q0"":3}","cold","recognition","[0]"
"","3861","survey-likert","172","null","312279","pum1brnt9an","cricket","","{""Q0"":1}","noise","recognition","[0]"
"","4882","survey-likert","173","null","317164","pum1brnt9an","cricket","","{""Q0"":2}","basket","recognition","[0]"
"","2082","survey-likert","174","null","319248","pum1brnt9an","cricket","","{""Q0"":3}","jam","recognition","[0]"
"","2555","survey-likert","175","null","321806","pum1brnt9an","cricket","","{""Q0"":1}","mountain","recognition","[0]"
"","2031","survey-likert","176","null","323841","pum1brnt9an","cricket","","{""Q0"":1}","window","recognition","[0]"
"","1823","survey-likert","177","null","325667","pum1brnt9an","cricket","","{""Q0"":1}","book","recognition","[0]"
"","2928","survey-likert","178","null","328598","pum1brnt9an","cricket","","{""Q0"":1}","drift","recognition","[0]"
"","1904","survey-likert","179","null","330505","pum1brnt9an","cricket","","{""Q0"":0}","balloon","recognition","[0]"
"","2152","survey-likert","180","null","332660","pum1brnt9an","cricket","","{""Q0"":3}","color","recognition","[0]"
"","2899","survey-likert","181","null","335562","pum1brnt9an","cricket","","{""Q0"":1}","river","recognition","[0]"
"","2273","survey-likert","182","null","337838","pum1brnt9an","cricket","","{""Q0"":3}","chilly","recognition","[0]"
"","2932","survey-likert","183","null","340773","pum1brnt9an","cricket","","{""Q0"":1}","frame","recognition","[0]"
"","5751","survey-likert","184","null","346527","pum1brnt9an","cricket","","{""Q0"":1}","guitar","recognition","[0]"
"","1888","survey-likert","185","null","348418","pum1brnt9an","cricket","","{""Q0"":1}","oven","recognition","[0]"
"","9186","survey-likert","186","null","357607","pum1brnt9an","cricket","","{""Q0"":2}","chair","recognition","[0]"
"","3165","survey-likert","187","null","360775","pum1brnt9an","cricket","","{""Q0"":0}","camera","recognition","[0]"
"","2359","survey-likert","188","null","363137","pum1brnt9an","cricket","","{""Q0"":3}","hate","recognition","[0]"
"","4081","survey-likert","189","null","367222","pum1brnt9an","cricket","","{""Q0"":0}","black","recognition","[0]"
"","2413","survey-likert","190","null","369637","pum1brnt9an","cricket","","{""Q0"":0}","elephant","recognition","[0]"
"","2558","survey-likert","191","null","372198","pum1brnt9an","cricket","","{""Q0"":2}","air","recognition","[0]"
"","2604","survey-likert","192","null","374805","pum1brnt9an","cricket","","{""Q0"":3}","rage","recognition","[0]"
"","2786","survey-likert","193","null","377595","pum1brnt9an","cricket","","{""Q0"":0}","attention","recognition","[0]"
"","2334","survey-likert","194","null","379933","pum1brnt9an","cricket","","{""Q0"":0}","shade","recognition","[0]"
"","3350","survey-likert","195","null","383285","pum1brnt9an","cricket","","{""Q0"":3}","funeral","recognition","[0]"
"","60612","survey-text","196","2.0.0","443906","pum1brnt9an","cricket","","{""age"":""25"",""gender"":""female"",""Q2"":""Measure the number false positives related to old words heard or read"",""Q3"":""the audio was lagging every now and then but nothing to bad""}","","",""
