"success","rt","trial_type","trial_index","plugin_version","time_elapsed","random_id","participant","stimulus","response","word","type","question_order"
"true","1120","fullscreen","0","null","2125","pwdfftmnce8","trex","","","","",""
"","6267","html-keyboard-response","1","2.0.0","8393","pwdfftmnce8","trex","Welcome to the Fasle Recall Experiment.<p>You will see and listen to 6 lists of 12-words one at a time. Try to remember as many as you can.</p><p>After the list, you’ll be asked to complete a recognition test.</p><p>Press any key to begin.</p>"," ","","",""
"","6278","survey-text","2","2.0.0","14675","pwdfftmnce8","trex","","{""participant_id"":""trex""}","","",""
"","null","html-keyboard-response","3","2.0.0","16678","pwdfftmnce8","trex","<h3>List 1 </h3>","null","","",""
"","null","html-keyboard-response","4","2.0.0","17681","pwdfftmnce8","trex","<div style=""font-size:60px;"">+</div>","null","","",""
"","null","html-keyboard-response","5","2.0.0","19183","pwdfftmnce8","trex","<p>hot</p>","null","","",""
"","null","html-keyboard-response","6","2.0.0","20186","pwdfftmnce8","trex","<div style=""font-size:60px;"">+</div>","null","","",""
"","null","html-keyboard-response","7","2.0.0","21689","pwdfftmnce8","trex","<p>frigid</p>","null","","",""
"","null","html-keyboard-response","8","2.0.0","22692","pwdfftmnce8","trex","<div style=""font-size:60px;"">+</div>","null","","",""
"","null","html-keyboard-response","9","2.0.0","24193","pwdfftmnce8","trex","<p>chilly</p>","null","","",""
"","null","html-keyboard-response","10","2.0.0","25196","pwdfftmnce8","trex","<div style=""font-size:60px;"">+</div>","null","","",""
"","null","html-keyboard-response","11","2.0.0","26698","pwdfftmnce8","trex","<p>heat</p>","null","","",""
"","null","html-keyboard-response","12","2.0.0","27701","pwdfftmnce8","trex","<div style=""font-size:60px;"">+</div>","null","","",""
"","null","html-keyboard-response","13","2.0.0","29204","pwdfftmnce8","trex","<p>freeze</p>","null","","",""
"","null","html-keyboard-response","14","2.0.0","30207","pwdfftmnce8","trex","<div style=""font-size:60px;"">+</div>","null","","",""
"","null","html-keyboard-response","15","2.0.0","31710","pwdfftmnce8","trex","<p>ice</p>","null","","",""
"","null","html-keyboard-response","16","2.0.0","32713","pwdfftmnce8","trex","<div style=""font-size:60px;"">+</div>","null","","",""
"","null","html-keyboard-response","17","2.0.0","34215","pwdfftmnce8","trex","<p>weather</p>","null","","",""
"","null","html-keyboard-response","18","2.0.0","35218","pwdfftmnce8","trex","<div style=""font-size:60px;"">+</div>","null","","",""
"","null","html-keyboard-response","19","2.0.0","36720","pwdfftmnce8","trex","<p>warm</p>","null","","",""
"","null","html-keyboard-response","20","2.0.0","37722","pwdfftmnce8","trex","<div style=""font-size:60px;"">+</div>","null","","",""
"","null","html-keyboard-response","21","2.0.0","39225","pwdfftmnce8","trex","<p>wet</p>","null","","",""
"","null","html-keyboard-response","22","2.0.0","40227","pwdfftmnce8","trex","<div style=""font-size:60px;"">+</div>","null","","",""
"","null","html-keyboard-response","23","2.0.0","41730","pwdfftmnce8","trex","<p>air</p>","null","","",""
"","null","html-keyboard-response","24","2.0.0","42733","pwdfftmnce8","trex","<div style=""font-size:60px;"">+</div>","null","","",""
"","null","html-keyboard-response","25","2.0.0","44235","pwdfftmnce8","trex","<p>snow</p>","null","","",""
"","null","html-keyboard-response","26","2.0.0","45237","pwdfftmnce8","trex","<div style=""font-size:60px;"">+</div>","null","","",""
"","null","html-keyboard-response","27","2.0.0","46740","pwdfftmnce8","trex","<p>winter</p>","null","","",""
"","null","html-keyboard-response","28","2.0.0","48742","pwdfftmnce8","trex","<h3>List 2 </h3>","null","","",""
"","null","html-keyboard-response","29","2.0.0","49744","pwdfftmnce8","trex","<div style=""font-size:60px;"">+</div>","null","","",""
"","null","html-keyboard-response","30","2.0.0","51247","pwdfftmnce8","trex","<p>physician</p>","null","","",""
"","null","html-keyboard-response","31","2.0.0","52250","pwdfftmnce8","trex","<div style=""font-size:60px;"">+</div>","null","","",""
"","null","html-keyboard-response","32","2.0.0","53752","pwdfftmnce8","trex","<p>health</p>","null","","",""
"","null","html-keyboard-response","33","2.0.0","54755","pwdfftmnce8","trex","<div style=""font-size:60px;"">+</div>","null","","",""
"","null","html-keyboard-response","34","2.0.0","56257","pwdfftmnce8","trex","<p>office</p>","null","","",""
"","null","html-keyboard-response","35","2.0.0","57259","pwdfftmnce8","trex","<div style=""font-size:60px;"">+</div>","null","","",""
"","null","html-keyboard-response","36","2.0.0","58762","pwdfftmnce8","trex","<p>ill</p>","null","","",""
"","null","html-keyboard-response","37","2.0.0","59765","pwdfftmnce8","trex","<div style=""font-size:60px;"">+</div>","null","","",""
"","null","html-keyboard-response","38","2.0.0","61267","pwdfftmnce8","trex","<p>hospital</p>","null","","",""
"","null","html-keyboard-response","39","2.0.0","62271","pwdfftmnce8","trex","<div style=""font-size:60px;"">+</div>","null","","",""
"","null","html-keyboard-response","40","2.0.0","63773","pwdfftmnce8","trex","<p>dentist</p>","null","","",""
"","null","html-keyboard-response","41","2.0.0","64775","pwdfftmnce8","trex","<div style=""font-size:60px;"">+</div>","null","","",""
"","null","html-keyboard-response","42","2.0.0","66278","pwdfftmnce8","trex","<p>stethoscope</p>","null","","",""
"","null","html-keyboard-response","43","2.0.0","67280","pwdfftmnce8","trex","<div style=""font-size:60px;"">+</div>","null","","",""
"","null","html-keyboard-response","44","2.0.0","68783","pwdfftmnce8","trex","<p>nurse</p>","null","","",""
"","null","html-keyboard-response","45","2.0.0","69786","pwdfftmnce8","trex","<div style=""font-size:60px;"">+</div>","null","","",""
"","null","html-keyboard-response","46","2.0.0","71288","pwdfftmnce8","trex","<p>medicine</p>","null","","",""
"","null","html-keyboard-response","47","2.0.0","72291","pwdfftmnce8","trex","<div style=""font-size:60px;"">+</div>","null","","",""
"","null","html-keyboard-response","48","2.0.0","73793","pwdfftmnce8","trex","<p>lawyer</p>","null","","",""
"","null","html-keyboard-response","49","2.0.0","74796","pwdfftmnce8","trex","<div style=""font-size:60px;"">+</div>","null","","",""
"","null","html-keyboard-response","50","2.0.0","76298","pwdfftmnce8","trex","<p>sick</p>","null","","",""
"","null","html-keyboard-response","51","2.0.0","77301","pwdfftmnce8","trex","<div style=""font-size:60px;"">+</div>","null","","",""
"","null","html-keyboard-response","52","2.0.0","78804","pwdfftmnce8","trex","<p>patient</p>","null","","",""
"","null","html-keyboard-response","53","2.0.0","80806","pwdfftmnce8","trex","<h3>List 3 </h3>","null","","",""
"","null","html-keyboard-response","54","2.0.0","81808","pwdfftmnce8","trex","<div style=""font-size:60px;"">+</div>","null","","",""
"","null","html-keyboard-response","55","2.0.0","83311","pwdfftmnce8","trex","<p>swivel</p>","null","","",""
"","null","html-keyboard-response","56","2.0.0","84314","pwdfftmnce8","trex","<div style=""font-size:60px;"">+</div>","null","","",""
"","null","html-keyboard-response","57","2.0.0","85816","pwdfftmnce8","trex","<p>legs</p>","null","","",""
"","null","html-keyboard-response","58","2.0.0","86819","pwdfftmnce8","trex","<div style=""font-size:60px;"">+</div>","null","","",""
"","null","html-keyboard-response","59","2.0.0","88322","pwdfftmnce8","trex","<p>desk</p>","null","","",""
"","null","html-keyboard-response","60","2.0.0","89323","pwdfftmnce8","trex","<div style=""font-size:60px;"">+</div>","null","","",""
"","null","html-keyboard-response","61","2.0.0","90825","pwdfftmnce8","trex","<p>table</p>","null","","",""
"","null","html-keyboard-response","62","2.0.0","91826","pwdfftmnce8","trex","<div style=""font-size:60px;"">+</div>","null","","",""
"","null","html-keyboard-response","63","2.0.0","93328","pwdfftmnce8","trex","<p>sofa</p>","null","","",""
"","null","html-keyboard-response","64","2.0.0","94331","pwdfftmnce8","trex","<div style=""font-size:60px;"">+</div>","null","","",""
"","null","html-keyboard-response","65","2.0.0","95834","pwdfftmnce8","trex","<p>recliner</p>","null","","",""
"","null","html-keyboard-response","66","2.0.0","96836","pwdfftmnce8","trex","<div style=""font-size:60px;"">+</div>","null","","",""
"","null","html-keyboard-response","67","2.0.0","98339","pwdfftmnce8","trex","<p>sit</p>","null","","",""
"","null","html-keyboard-response","68","2.0.0","99341","pwdfftmnce8","trex","<div style=""font-size:60px;"">+</div>","null","","",""
"","null","html-keyboard-response","69","2.0.0","100844","pwdfftmnce8","trex","<p>stool</p>","null","","",""
"","null","html-keyboard-response","70","2.0.0","101847","pwdfftmnce8","trex","<div style=""font-size:60px;"">+</div>","null","","",""
"","null","html-keyboard-response","71","2.0.0","103349","pwdfftmnce8","trex","<p>couch</p>","null","","",""
"","null","html-keyboard-response","72","2.0.0","104351","pwdfftmnce8","trex","<div style=""font-size:60px;"">+</div>","null","","",""
"","null","html-keyboard-response","73","2.0.0","105853","pwdfftmnce8","trex","<p>wood</p>","null","","",""
"","null","html-keyboard-response","74","2.0.0","106856","pwdfftmnce8","trex","<div style=""font-size:60px;"">+</div>","null","","",""
"","null","html-keyboard-response","75","2.0.0","108359","pwdfftmnce8","trex","<p>cushion</p>","null","","",""
"","null","html-keyboard-response","76","2.0.0","109362","pwdfftmnce8","trex","<div style=""font-size:60px;"">+</div>","null","","",""
"","null","html-keyboard-response","77","2.0.0","110865","pwdfftmnce8","trex","<p>seat</p>","null","","",""
"","null","html-keyboard-response","78","2.0.0","112868","pwdfftmnce8","trex","<h3>List 4 </h3>","null","","",""
"","null","html-keyboard-response","79","2.0.0","113870","pwdfftmnce8","trex","<div style=""font-size:60px;"">+</div>","null","","",""
"","null","html-keyboard-response","80","2.0.0","115372","pwdfftmnce8","trex","<p>dough</p>","null","","",""
"","null","html-keyboard-response","81","2.0.0","116374","pwdfftmnce8","trex","<div style=""font-size:60px;"">+</div>","null","","",""
"","null","html-keyboard-response","82","2.0.0","117877","pwdfftmnce8","trex","<p>milk</p>","null","","",""
"","null","html-keyboard-response","83","2.0.0","118879","pwdfftmnce8","trex","<div style=""font-size:60px;"">+</div>","null","","",""
"","null","html-keyboard-response","84","2.0.0","120382","pwdfftmnce8","trex","<p>sandwich</p>","null","","",""
"","null","html-keyboard-response","85","2.0.0","121385","pwdfftmnce8","trex","<div style=""font-size:60px;"">+</div>","null","","",""
"","null","html-keyboard-response","86","2.0.0","122888","pwdfftmnce8","trex","<p>crust</p>","null","","",""
"","null","html-keyboard-response","87","2.0.0","123891","pwdfftmnce8","trex","<div style=""font-size:60px;"">+</div>","null","","",""
"","null","html-keyboard-response","88","2.0.0","125394","pwdfftmnce8","trex","<p>food</p>","null","","",""
"","null","html-keyboard-response","89","2.0.0","126397","pwdfftmnce8","trex","<div style=""font-size:60px;"">+</div>","null","","",""
"","null","html-keyboard-response","90","2.0.0","127898","pwdfftmnce8","trex","<p>eat</p>","null","","",""
"","null","html-keyboard-response","91","2.0.0","128901","pwdfftmnce8","trex","<div style=""font-size:60px;"">+</div>","null","","",""
"","null","html-keyboard-response","92","2.0.0","130403","pwdfftmnce8","trex","<p>flour</p>","null","","",""
"","null","html-keyboard-response","93","2.0.0","131406","pwdfftmnce8","trex","<div style=""font-size:60px;"">+</div>","null","","",""
"","null","html-keyboard-response","94","2.0.0","132908","pwdfftmnce8","trex","<p>butter</p>","null","","",""
"","null","html-keyboard-response","95","2.0.0","133910","pwdfftmnce8","trex","<div style=""font-size:60px;"">+</div>","null","","",""
"","null","html-keyboard-response","96","2.0.0","135413","pwdfftmnce8","trex","<p>rye</p>","null","","",""
"","null","html-keyboard-response","97","2.0.0","136415","pwdfftmnce8","trex","<div style=""font-size:60px;"">+</div>","null","","",""
"","null","html-keyboard-response","98","2.0.0","137918","pwdfftmnce8","trex","<p>jam</p>","null","","",""
"","null","html-keyboard-response","99","2.0.0","138921","pwdfftmnce8","trex","<div style=""font-size:60px;"">+</div>","null","","",""
"","null","html-keyboard-response","100","2.0.0","140424","pwdfftmnce8","trex","<p>jelly</p>","null","","",""
"","null","html-keyboard-response","101","2.0.0","141427","pwdfftmnce8","trex","<div style=""font-size:60px;"">+</div>","null","","",""
"","null","html-keyboard-response","102","2.0.0","142929","pwdfftmnce8","trex","<p>slice</p>","null","","",""
"","null","html-keyboard-response","103","2.0.0","144932","pwdfftmnce8","trex","<h3>List 5 </h3>","null","","",""
"","null","html-keyboard-response","104","2.0.0","145934","pwdfftmnce8","trex","<div style=""font-size:60px;"">+</div>","null","","",""
"","null","html-keyboard-response","105","2.0.0","147437","pwdfftmnce8","trex","<p>bottom</p>","null","","",""
"","null","html-keyboard-response","106","2.0.0","148440","pwdfftmnce8","trex","<div style=""font-size:60px;"">+</div>","null","","",""
"","null","html-keyboard-response","107","2.0.0","149942","pwdfftmnce8","trex","<p>grief</p>","null","","",""
"","null","html-keyboard-response","108","2.0.0","150945","pwdfftmnce8","trex","<div style=""font-size:60px;"">+</div>","null","","",""
"","null","html-keyboard-response","109","2.0.0","152448","pwdfftmnce8","trex","<p>death</p>","null","","",""
"","null","html-keyboard-response","110","2.0.0","153450","pwdfftmnce8","trex","<div style=""font-size:60px;"">+</div>","null","","",""
"","null","html-keyboard-response","111","2.0.0","154953","pwdfftmnce8","trex","<p>funeral</p>","null","","",""
"","null","html-keyboard-response","112","2.0.0","155955","pwdfftmnce8","trex","<div style=""font-size:60px;"">+</div>","null","","",""
"","null","html-keyboard-response","113","2.0.0","157458","pwdfftmnce8","trex","<p>cat</p>","null","","",""
"","null","html-keyboard-response","114","2.0.0","158461","pwdfftmnce8","trex","<div style=""font-size:60px;"">+</div>","null","","",""
"","null","html-keyboard-response","115","2.0.0","159963","pwdfftmnce8","trex","<p>night</p>","null","","",""
"","null","html-keyboard-response","116","2.0.0","160966","pwdfftmnce8","trex","<div style=""font-size:60px;"">+</div>","null","","",""
"","null","html-keyboard-response","117","2.0.0","162468","pwdfftmnce8","trex","<p>color</p>","null","","",""
"","null","html-keyboard-response","118","2.0.0","163471","pwdfftmnce8","trex","<div style=""font-size:60px;"">+</div>","null","","",""
"","null","html-keyboard-response","119","2.0.0","164974","pwdfftmnce8","trex","<p>charred</p>","null","","",""
"","null","html-keyboard-response","120","2.0.0","165977","pwdfftmnce8","trex","<div style=""font-size:60px;"">+</div>","null","","",""
"","null","html-keyboard-response","121","2.0.0","167479","pwdfftmnce8","trex","<p>white</p>","null","","",""
"","null","html-keyboard-response","122","2.0.0","168482","pwdfftmnce8","trex","<div style=""font-size:60px;"">+</div>","null","","",""
"","null","html-keyboard-response","123","2.0.0","169985","pwdfftmnce8","trex","<p>ink</p>","null","","",""
"","null","html-keyboard-response","124","2.0.0","170988","pwdfftmnce8","trex","<div style=""font-size:60px;"">+</div>","null","","",""
"","null","html-keyboard-response","125","2.0.0","172491","pwdfftmnce8","trex","<p>dark</p>","null","","",""
"","null","html-keyboard-response","126","2.0.0","173493","pwdfftmnce8","trex","<div style=""font-size:60px;"">+</div>","null","","",""
"","null","html-keyboard-response","127","2.0.0","174996","pwdfftmnce8","trex","<p>blue</p>","null","","",""
"","null","html-keyboard-response","128","2.0.0","176998","pwdfftmnce8","trex","<h3>List 6 </h3>","null","","",""
"","null","html-keyboard-response","129","2.0.0","178000","pwdfftmnce8","trex","<div style=""font-size:60px;"">+</div>","null","","",""
"","null","html-keyboard-response","130","2.0.0","179503","pwdfftmnce8","trex","<p>mad</p>","null","","",""
"","null","html-keyboard-response","131","2.0.0","180506","pwdfftmnce8","trex","<div style=""font-size:60px;"">+</div>","null","","",""
"","null","html-keyboard-response","132","2.0.0","182008","pwdfftmnce8","trex","<p>mean</p>","null","","",""
"","null","html-keyboard-response","133","2.0.0","183010","pwdfftmnce8","trex","<div style=""font-size:60px;"">+</div>","null","","",""
"","null","html-keyboard-response","134","2.0.0","184512","pwdfftmnce8","trex","<p>hatred</p>","null","","",""
"","null","html-keyboard-response","135","2.0.0","185515","pwdfftmnce8","trex","<div style=""font-size:60px;"">+</div>","null","","",""
"","null","html-keyboard-response","136","2.0.0","187018","pwdfftmnce8","trex","<p>wrath</p>","null","","",""
"","null","html-keyboard-response","137","2.0.0","188020","pwdfftmnce8","trex","<div style=""font-size:60px;"">+</div>","null","","",""
"","null","html-keyboard-response","138","2.0.0","189522","pwdfftmnce8","trex","<p>fear</p>","null","","",""
"","null","html-keyboard-response","139","2.0.0","190525","pwdfftmnce8","trex","<div style=""font-size:60px;"">+</div>","null","","",""
"","null","html-keyboard-response","140","2.0.0","192028","pwdfftmnce8","trex","<p>hate</p>","null","","",""
"","null","html-keyboard-response","141","2.0.0","193031","pwdfftmnce8","trex","<div style=""font-size:60px;"">+</div>","null","","",""
"","null","html-keyboard-response","142","2.0.0","194533","pwdfftmnce8","trex","<p>temper</p>","null","","",""
"","null","html-keyboard-response","143","2.0.0","195536","pwdfftmnce8","trex","<div style=""font-size:60px;"">+</div>","null","","",""
"","null","html-keyboard-response","144","2.0.0","197039","pwdfftmnce8","trex","<p>ire</p>","null","","",""
"","null","html-keyboard-response","145","2.0.0","198042","pwdfftmnce8","trex","<div style=""font-size:60px;"">+</div>","null","","",""
"","null","html-keyboard-response","146","2.0.0","199545","pwdfftmnce8","trex","<p>happy</p>","null","","",""
"","null","html-keyboard-response","147","2.0.0","200547","pwdfftmnce8","trex","<div style=""font-size:60px;"">+</div>","null","","",""
"","null","html-keyboard-response","148","2.0.0","202050","pwdfftmnce8","trex","<p>rage</p>","null","","",""
"","null","html-keyboard-response","149","2.0.0","203052","pwdfftmnce8","trex","<div style=""font-size:60px;"">+</div>","null","","",""
"","null","html-keyboard-response","150","2.0.0","204554","pwdfftmnce8","trex","<p>fury</p>","null","","",""
"","null","html-keyboard-response","151","2.0.0","205556","pwdfftmnce8","trex","<div style=""font-size:60px;"">+</div>","null","","",""
"","null","html-keyboard-response","152","2.0.0","207058","pwdfftmnce8","trex","<p>fight</p>","null","","",""
"","4724","html-keyboard-response","153","2.0.0","211783","pwdfftmnce8","trex","Now you will rate your confidence that each word occurred on the list. <p>Please indicate whether you think the word was definitely new, probably new, probably old, or definitely old.</p> <p>Press any key to continue.</P>"," ","","",""
"","2622","survey-likert","154","null","214409","pwdfftmnce8","trex","","{""Q0"":1}","laptop","recognition","[0]"
"","8514","survey-likert","155","null","222925","pwdfftmnce8","trex","","{""Q0"":1}","elephant","recognition","[0]"
"","2765","survey-likert","156","null","225692","pwdfftmnce8","trex","","{""Q0"":1}","clock","recognition","[0]"
"","2664","survey-likert","157","null","228359","pwdfftmnce8","trex","","{""Q0"":2}","doctor","recognition","[0]"
"","10031","survey-likert","158","null","238392","pwdfftmnce8","trex","","{""Q0"":2}","drift","recognition","[0]"
"","9799","survey-likert","159","null","248192","pwdfftmnce8","trex","","{""Q0"":2}","book","recognition","[0]"
"","2046","survey-likert","160","null","250241","pwdfftmnce8","trex","","{""Q0"":3}","warm","recognition","[0]"
"","2249","survey-likert","161","null","252492","pwdfftmnce8","trex","","{""Q0"":3}","stethoscope","recognition","[0]"
"","2697","survey-likert","162","null","255192","pwdfftmnce8","trex","","{""Q0"":2}","shade","recognition","[0]"
"","2064","survey-likert","163","null","257258","pwdfftmnce8","trex","","{""Q0"":2}","heat","recognition","[0]"
"","2047","survey-likert","164","null","259308","pwdfftmnce8","trex","","{""Q0"":2}","black","recognition","[0]"
"","2399","survey-likert","165","null","261709","pwdfftmnce8","trex","","{""Q0"":0}","balloon","recognition","[0]"
"","1964","survey-likert","166","null","263675","pwdfftmnce8","trex","","{""Q0"":1}","procedure","recognition","[0]"
"","2531","survey-likert","167","null","266208","pwdfftmnce8","trex","","{""Q0"":1}","curtain","recognition","[0]"
"","2048","survey-likert","168","null","268259","pwdfftmnce8","trex","","{""Q0"":2}","cold","recognition","[0]"
"","2314","survey-likert","169","null","270575","pwdfftmnce8","trex","","{""Q0"":0}","balance","recognition","[0]"
"","1964","survey-likert","170","null","272541","pwdfftmnce8","trex","","{""Q0"":2}","bread","recognition","[0]"
"","2449","survey-likert","171","null","274992","pwdfftmnce8","trex","","{""Q0"":2}","void","recognition","[0]"
"","1847","survey-likert","172","null","276842","pwdfftmnce8","trex","","{""Q0"":2}","cat","recognition","[0]"
"","3482","survey-likert","173","null","280326","pwdfftmnce8","trex","","{""Q0"":0}","lighthouse","recognition","[0]"
"","2213","survey-likert","174","null","282541","pwdfftmnce8","trex","","{""Q0"":0}","camera","recognition","[0]"
"","3281","survey-likert","175","null","285825","pwdfftmnce8","trex","","{""Q0"":2}","window","recognition","[0]"
"","2332","survey-likert","176","null","288158","pwdfftmnce8","trex","","{""Q0"":3}","flour","recognition","[0]"
"","1681","survey-likert","177","null","289842","pwdfftmnce8","trex","","{""Q0"":2}","anger","recognition","[0]"
"","2881","survey-likert","178","null","292725","pwdfftmnce8","trex","","{""Q0"":2}","crust","recognition","[0]"
"","2297","survey-likert","179","null","295025","pwdfftmnce8","trex","","{""Q0"":1}","guitar","recognition","[0]"
"","4798","survey-likert","180","null","299825","pwdfftmnce8","trex","","{""Q0"":2}","attention","recognition","[0]"
"","2515","survey-likert","181","null","302343","pwdfftmnce8","trex","","{""Q0"":2}","oven","recognition","[0]"
"","2713","survey-likert","182","null","305058","pwdfftmnce8","trex","","{""Q0"":2}","bottom","recognition","[0]"
"","10232","survey-likert","183","null","315292","pwdfftmnce8","trex","","{""Q0"":1}","noise","recognition","[0]"
"","2231","survey-likert","184","null","317525","pwdfftmnce8","trex","","{""Q0"":2}","table","recognition","[0]"
"","2048","survey-likert","185","null","319575","pwdfftmnce8","trex","","{""Q0"":1}","mountain","recognition","[0]"
"","2664","survey-likert","186","null","322242","pwdfftmnce8","trex","","{""Q0"":3}","mad","recognition","[0]"
"","2365","survey-likert","187","null","324609","pwdfftmnce8","trex","","{""Q0"":2}","seat","recognition","[0]"
"","7297","survey-likert","188","null","331909","pwdfftmnce8","trex","","{""Q0"":1}","conflict","recognition","[0]"
"","2230","survey-likert","189","null","334141","pwdfftmnce8","trex","","{""Q0"":0}","planet","recognition","[0]"
"","2199","survey-likert","190","null","336342","pwdfftmnce8","trex","","{""Q0"":2}","chair","recognition","[0]"
"","1780","survey-likert","191","null","338125","pwdfftmnce8","trex","","{""Q0"":2}","frame","recognition","[0]"
"","2415","survey-likert","192","null","340542","pwdfftmnce8","trex","","{""Q0"":1}","basket","recognition","[0]"
"","2631","survey-likert","193","null","343175","pwdfftmnce8","trex","","{""Q0"":3}","happy","recognition","[0]"
"","3548","survey-likert","194","null","346725","pwdfftmnce8","trex","","{""Q0"":2}","river","recognition","[0]"
"","2682","survey-likert","195","null","349409","pwdfftmnce8","trex","","{""Q0"":3}","dentist","recognition","[0]"
"","15381","survey-text","196","2.0.0","364794","pwdfftmnce8","trex","","{""age"":""20"",""gender"":""Female"",""Q2"":""Test on false recall"",""Q3"":""N/A""}","","",""
