"success","rt","trial_type","trial_index","plugin_version","time_elapsed","random_id","participant","stimulus","response","word","type","question_order"
"true","1406","fullscreen","0","null","2410","pwelb1urva9","cheetah","","","","",""
"","475029","html-keyboard-response","1","2.0.0","477441","pwelb1urva9","cheetah","Welcome to the Fasle Recall Experiment.<p>You will see and listen to 6 lists of 12-words one at a time. Try to remember as many as you can.</p><p>After the list, you’ll be asked to complete a recognition test.</p><p>Press any key to begin.</p>"," ","","",""
"","2275","survey-text","2","2.0.0","479724","pwelb1urva9","cheetah","","{""participant_id"":""cheetah""}","","",""
"","null","html-keyboard-response","3","2.0.0","481727","pwelb1urva9","cheetah","<h3>List 1 </h3>","null","","",""
"","null","html-keyboard-response","4","2.0.0","482730","pwelb1urva9","cheetah","<div style=""font-size:60px;"">+</div>","null","","",""
"","null","html-keyboard-response","5","2.0.0","484234","pwelb1urva9","cheetah","<p>cat</p>","null","","",""
"","null","html-keyboard-response","6","2.0.0","485236","pwelb1urva9","cheetah","<div style=""font-size:60px;"">+</div>","null","","",""
"","null","html-keyboard-response","7","2.0.0","486739","pwelb1urva9","cheetah","<p>funeral</p>","null","","",""
"","null","html-keyboard-response","8","2.0.0","487743","pwelb1urva9","cheetah","<div style=""font-size:60px;"">+</div>","null","","",""
"","null","html-keyboard-response","9","2.0.0","489244","pwelb1urva9","cheetah","<p>color</p>","null","","",""
"","null","html-keyboard-response","10","2.0.0","490247","pwelb1urva9","cheetah","<div style=""font-size:60px;"">+</div>","null","","",""
"","null","html-keyboard-response","11","2.0.0","491750","pwelb1urva9","cheetah","<p>bottom</p>","null","","",""
"","null","html-keyboard-response","12","2.0.0","492753","pwelb1urva9","cheetah","<div style=""font-size:60px;"">+</div>","null","","",""
"","null","html-keyboard-response","13","2.0.0","494255","pwelb1urva9","cheetah","<p>death</p>","null","","",""
"","null","html-keyboard-response","14","2.0.0","495258","pwelb1urva9","cheetah","<div style=""font-size:60px;"">+</div>","null","","",""
"","null","html-keyboard-response","15","2.0.0","496760","pwelb1urva9","cheetah","<p>night</p>","null","","",""
"","null","html-keyboard-response","16","2.0.0","497763","pwelb1urva9","cheetah","<div style=""font-size:60px;"">+</div>","null","","",""
"","null","html-keyboard-response","17","2.0.0","499264","pwelb1urva9","cheetah","<p>grief</p>","null","","",""
"","null","html-keyboard-response","18","2.0.0","500268","pwelb1urva9","cheetah","<div style=""font-size:60px;"">+</div>","null","","",""
"","null","html-keyboard-response","19","2.0.0","501770","pwelb1urva9","cheetah","<p>white</p>","null","","",""
"","null","html-keyboard-response","20","2.0.0","502772","pwelb1urva9","cheetah","<div style=""font-size:60px;"">+</div>","null","","",""
"","null","html-keyboard-response","21","2.0.0","504274","pwelb1urva9","cheetah","<p>charred</p>","null","","",""
"","null","html-keyboard-response","22","2.0.0","505277","pwelb1urva9","cheetah","<div style=""font-size:60px;"">+</div>","null","","",""
"","null","html-keyboard-response","23","2.0.0","506780","pwelb1urva9","cheetah","<p>ink</p>","null","","",""
"","null","html-keyboard-response","24","2.0.0","507781","pwelb1urva9","cheetah","<div style=""font-size:60px;"">+</div>","null","","",""
"","null","html-keyboard-response","25","2.0.0","509283","pwelb1urva9","cheetah","<p>dark</p>","null","","",""
"","null","html-keyboard-response","26","2.0.0","510286","pwelb1urva9","cheetah","<div style=""font-size:60px;"">+</div>","null","","",""
"","null","html-keyboard-response","27","2.0.0","511789","pwelb1urva9","cheetah","<p>blue</p>","null","","",""
"","null","html-keyboard-response","28","2.0.0","513791","pwelb1urva9","cheetah","<h3>List 2 </h3>","null","","",""
"","null","html-keyboard-response","29","2.0.0","514793","pwelb1urva9","cheetah","<div style=""font-size:60px;"">+</div>","null","","",""
"","null","html-keyboard-response","30","2.0.0","516295","pwelb1urva9","cheetah","<p>physician</p>","null","","",""
"","null","html-keyboard-response","31","2.0.0","517297","pwelb1urva9","cheetah","<div style=""font-size:60px;"">+</div>","null","","",""
"","null","html-keyboard-response","32","2.0.0","518800","pwelb1urva9","cheetah","<p>hospital</p>","null","","",""
"","null","html-keyboard-response","33","2.0.0","519802","pwelb1urva9","cheetah","<div style=""font-size:60px;"">+</div>","null","","",""
"","null","html-keyboard-response","34","2.0.0","521304","pwelb1urva9","cheetah","<p>stethoscope</p>","null","","",""
"","null","html-keyboard-response","35","2.0.0","522307","pwelb1urva9","cheetah","<div style=""font-size:60px;"">+</div>","null","","",""
"","null","html-keyboard-response","36","2.0.0","523809","pwelb1urva9","cheetah","<p>dentist</p>","null","","",""
"","null","html-keyboard-response","37","2.0.0","524812","pwelb1urva9","cheetah","<div style=""font-size:60px;"">+</div>","null","","",""
"","null","html-keyboard-response","38","2.0.0","526315","pwelb1urva9","cheetah","<p>sick</p>","null","","",""
"","null","html-keyboard-response","39","2.0.0","527317","pwelb1urva9","cheetah","<div style=""font-size:60px;"">+</div>","null","","",""
"","null","html-keyboard-response","40","2.0.0","528820","pwelb1urva9","cheetah","<p>lawyer</p>","null","","",""
"","null","html-keyboard-response","41","2.0.0","529822","pwelb1urva9","cheetah","<div style=""font-size:60px;"">+</div>","null","","",""
"","null","html-keyboard-response","42","2.0.0","531324","pwelb1urva9","cheetah","<p>health</p>","null","","",""
"","null","html-keyboard-response","43","2.0.0","532326","pwelb1urva9","cheetah","<div style=""font-size:60px;"">+</div>","null","","",""
"","null","html-keyboard-response","44","2.0.0","533829","pwelb1urva9","cheetah","<p>medicine</p>","null","","",""
"","null","html-keyboard-response","45","2.0.0","534832","pwelb1urva9","cheetah","<div style=""font-size:60px;"">+</div>","null","","",""
"","null","html-keyboard-response","46","2.0.0","536334","pwelb1urva9","cheetah","<p>nurse</p>","null","","",""
"","null","html-keyboard-response","47","2.0.0","537337","pwelb1urva9","cheetah","<div style=""font-size:60px;"">+</div>","null","","",""
"","null","html-keyboard-response","48","2.0.0","538839","pwelb1urva9","cheetah","<p>office</p>","null","","",""
"","null","html-keyboard-response","49","2.0.0","539842","pwelb1urva9","cheetah","<div style=""font-size:60px;"">+</div>","null","","",""
"","null","html-keyboard-response","50","2.0.0","541345","pwelb1urva9","cheetah","<p>patient</p>","null","","",""
"","null","html-keyboard-response","51","2.0.0","542347","pwelb1urva9","cheetah","<div style=""font-size:60px;"">+</div>","null","","",""
"","null","html-keyboard-response","52","2.0.0","543849","pwelb1urva9","cheetah","<p>ill</p>","null","","",""
"","null","html-keyboard-response","53","2.0.0","545852","pwelb1urva9","cheetah","<h3>List 3 </h3>","null","","",""
"","null","html-keyboard-response","54","2.0.0","546853","pwelb1urva9","cheetah","<div style=""font-size:60px;"">+</div>","null","","",""
"","null","html-keyboard-response","55","2.0.0","548356","pwelb1urva9","cheetah","<p>rage</p>","null","","",""
"","null","html-keyboard-response","56","2.0.0","549358","pwelb1urva9","cheetah","<div style=""font-size:60px;"">+</div>","null","","",""
"","null","html-keyboard-response","57","2.0.0","550861","pwelb1urva9","cheetah","<p>happy</p>","null","","",""
"","null","html-keyboard-response","58","2.0.0","551864","pwelb1urva9","cheetah","<div style=""font-size:60px;"">+</div>","null","","",""
"","null","html-keyboard-response","59","2.0.0","553366","pwelb1urva9","cheetah","<p>mad</p>","null","","",""
"","null","html-keyboard-response","60","2.0.0","554367","pwelb1urva9","cheetah","<div style=""font-size:60px;"">+</div>","null","","",""
"","null","html-keyboard-response","61","2.0.0","555870","pwelb1urva9","cheetah","<p>fear</p>","null","","",""
"","null","html-keyboard-response","62","2.0.0","556872","pwelb1urva9","cheetah","<div style=""font-size:60px;"">+</div>","null","","",""
"","null","html-keyboard-response","63","2.0.0","558375","pwelb1urva9","cheetah","<p>temper</p>","null","","",""
"","null","html-keyboard-response","64","2.0.0","559378","pwelb1urva9","cheetah","<div style=""font-size:60px;"">+</div>","null","","",""
"","null","html-keyboard-response","65","2.0.0","560879","pwelb1urva9","cheetah","<p>hate</p>","null","","",""
"","null","html-keyboard-response","66","2.0.0","561882","pwelb1urva9","cheetah","<div style=""font-size:60px;"">+</div>","null","","",""
"","null","html-keyboard-response","67","2.0.0","563384","pwelb1urva9","cheetah","<p>mean</p>","null","","",""
"","null","html-keyboard-response","68","2.0.0","564387","pwelb1urva9","cheetah","<div style=""font-size:60px;"">+</div>","null","","",""
"","null","html-keyboard-response","69","2.0.0","565889","pwelb1urva9","cheetah","<p>fight</p>","null","","",""
"","null","html-keyboard-response","70","2.0.0","566892","pwelb1urva9","cheetah","<div style=""font-size:60px;"">+</div>","null","","",""
"","null","html-keyboard-response","71","2.0.0","568393","pwelb1urva9","cheetah","<p>hatred</p>","null","","",""
"","null","html-keyboard-response","72","2.0.0","569395","pwelb1urva9","cheetah","<div style=""font-size:60px;"">+</div>","null","","",""
"","null","html-keyboard-response","73","2.0.0","570898","pwelb1urva9","cheetah","<p>ire</p>","null","","",""
"","null","html-keyboard-response","74","2.0.0","571901","pwelb1urva9","cheetah","<div style=""font-size:60px;"">+</div>","null","","",""
"","null","html-keyboard-response","75","2.0.0","573404","pwelb1urva9","cheetah","<p>fury</p>","null","","",""
"","null","html-keyboard-response","76","2.0.0","574407","pwelb1urva9","cheetah","<div style=""font-size:60px;"">+</div>","null","","",""
"","null","html-keyboard-response","77","2.0.0","575910","pwelb1urva9","cheetah","<p>wrath</p>","null","","",""
"","null","html-keyboard-response","78","2.0.0","577912","pwelb1urva9","cheetah","<h3>List 4 </h3>","null","","",""
"","null","html-keyboard-response","79","2.0.0","578915","pwelb1urva9","cheetah","<div style=""font-size:60px;"">+</div>","null","","",""
"","null","html-keyboard-response","80","2.0.0","580417","pwelb1urva9","cheetah","<p>frigid</p>","null","","",""
"","null","html-keyboard-response","81","2.0.0","581420","pwelb1urva9","cheetah","<div style=""font-size:60px;"">+</div>","null","","",""
"","null","html-keyboard-response","82","2.0.0","582922","pwelb1urva9","cheetah","<p>wet</p>","null","","",""
"","null","html-keyboard-response","83","2.0.0","583925","pwelb1urva9","cheetah","<div style=""font-size:60px;"">+</div>","null","","",""
"","null","html-keyboard-response","84","2.0.0","585428","pwelb1urva9","cheetah","<p>heat</p>","null","","",""
"","null","html-keyboard-response","85","2.0.0","586430","pwelb1urva9","cheetah","<div style=""font-size:60px;"">+</div>","null","","",""
"","null","html-keyboard-response","86","2.0.0","587933","pwelb1urva9","cheetah","<p>freeze</p>","null","","",""
"","null","html-keyboard-response","87","2.0.0","588935","pwelb1urva9","cheetah","<div style=""font-size:60px;"">+</div>","null","","",""
"","null","html-keyboard-response","88","2.0.0","590438","pwelb1urva9","cheetah","<p>chilly</p>","null","","",""
"","null","html-keyboard-response","89","2.0.0","591441","pwelb1urva9","cheetah","<div style=""font-size:60px;"">+</div>","null","","",""
"","null","html-keyboard-response","90","2.0.0","592943","pwelb1urva9","cheetah","<p>snow</p>","null","","",""
"","null","html-keyboard-response","91","2.0.0","593945","pwelb1urva9","cheetah","<div style=""font-size:60px;"">+</div>","null","","",""
"","null","html-keyboard-response","92","2.0.0","595447","pwelb1urva9","cheetah","<p>winter</p>","null","","",""
"","null","html-keyboard-response","93","2.0.0","596449","pwelb1urva9","cheetah","<div style=""font-size:60px;"">+</div>","null","","",""
"","null","html-keyboard-response","94","2.0.0","597951","pwelb1urva9","cheetah","<p>ice</p>","null","","",""
"","null","html-keyboard-response","95","2.0.0","598953","pwelb1urva9","cheetah","<div style=""font-size:60px;"">+</div>","null","","",""
"","null","html-keyboard-response","96","2.0.0","600455","pwelb1urva9","cheetah","<p>hot</p>","null","","",""
"","null","html-keyboard-response","97","2.0.0","601457","pwelb1urva9","cheetah","<div style=""font-size:60px;"">+</div>","null","","",""
"","null","html-keyboard-response","98","2.0.0","602959","pwelb1urva9","cheetah","<p>air</p>","null","","",""
"","null","html-keyboard-response","99","2.0.0","603961","pwelb1urva9","cheetah","<div style=""font-size:60px;"">+</div>","null","","",""
"","null","html-keyboard-response","100","2.0.0","605463","pwelb1urva9","cheetah","<p>weather</p>","null","","",""
"","null","html-keyboard-response","101","2.0.0","606465","pwelb1urva9","cheetah","<div style=""font-size:60px;"">+</div>","null","","",""
"","null","html-keyboard-response","102","2.0.0","607966","pwelb1urva9","cheetah","<p>warm</p>","null","","",""
"","null","html-keyboard-response","103","2.0.0","609967","pwelb1urva9","cheetah","<h3>List 5 </h3>","null","","",""
"","null","html-keyboard-response","104","2.0.0","610968","pwelb1urva9","cheetah","<div style=""font-size:60px;"">+</div>","null","","",""
"","null","html-keyboard-response","105","2.0.0","612469","pwelb1urva9","cheetah","<p>swivel</p>","null","","",""
"","null","html-keyboard-response","106","2.0.0","613471","pwelb1urva9","cheetah","<div style=""font-size:60px;"">+</div>","null","","",""
"","null","html-keyboard-response","107","2.0.0","614974","pwelb1urva9","cheetah","<p>couch</p>","null","","",""
"","null","html-keyboard-response","108","2.0.0","615976","pwelb1urva9","cheetah","<div style=""font-size:60px;"">+</div>","null","","",""
"","null","html-keyboard-response","109","2.0.0","617478","pwelb1urva9","cheetah","<p>legs</p>","null","","",""
"","null","html-keyboard-response","110","2.0.0","618480","pwelb1urva9","cheetah","<div style=""font-size:60px;"">+</div>","null","","",""
"","null","html-keyboard-response","111","2.0.0","619982","pwelb1urva9","cheetah","<p>sofa</p>","null","","",""
"","null","html-keyboard-response","112","2.0.0","620984","pwelb1urva9","cheetah","<div style=""font-size:60px;"">+</div>","null","","",""
"","null","html-keyboard-response","113","2.0.0","622486","pwelb1urva9","cheetah","<p>recliner</p>","null","","",""
"","null","html-keyboard-response","114","2.0.0","623489","pwelb1urva9","cheetah","<div style=""font-size:60px;"">+</div>","null","","",""
"","null","html-keyboard-response","115","2.0.0","624992","pwelb1urva9","cheetah","<p>seat</p>","null","","",""
"","null","html-keyboard-response","116","2.0.0","625994","pwelb1urva9","cheetah","<div style=""font-size:60px;"">+</div>","null","","",""
"","null","html-keyboard-response","117","2.0.0","627497","pwelb1urva9","cheetah","<p>cushion</p>","null","","",""
"","null","html-keyboard-response","118","2.0.0","628499","pwelb1urva9","cheetah","<div style=""font-size:60px;"">+</div>","null","","",""
"","null","html-keyboard-response","119","2.0.0","630001","pwelb1urva9","cheetah","<p>table</p>","null","","",""
"","null","html-keyboard-response","120","2.0.0","631003","pwelb1urva9","cheetah","<div style=""font-size:60px;"">+</div>","null","","",""
"","null","html-keyboard-response","121","2.0.0","632504","pwelb1urva9","cheetah","<p>stool</p>","null","","",""
"","null","html-keyboard-response","122","2.0.0","633507","pwelb1urva9","cheetah","<div style=""font-size:60px;"">+</div>","null","","",""
"","null","html-keyboard-response","123","2.0.0","635010","pwelb1urva9","cheetah","<p>sit</p>","null","","",""
"","null","html-keyboard-response","124","2.0.0","636011","pwelb1urva9","cheetah","<div style=""font-size:60px;"">+</div>","null","","",""
"","null","html-keyboard-response","125","2.0.0","637514","pwelb1urva9","cheetah","<p>desk</p>","null","","",""
"","null","html-keyboard-response","126","2.0.0","638517","pwelb1urva9","cheetah","<div style=""font-size:60px;"">+</div>","null","","",""
"","null","html-keyboard-response","127","2.0.0","640021","pwelb1urva9","cheetah","<p>wood</p>","null","","",""
"","null","html-keyboard-response","128","2.0.0","642022","pwelb1urva9","cheetah","<h3>List 6 </h3>","null","","",""
"","null","html-keyboard-response","129","2.0.0","643024","pwelb1urva9","cheetah","<div style=""font-size:60px;"">+</div>","null","","",""
"","null","html-keyboard-response","130","2.0.0","644528","pwelb1urva9","cheetah","<p>jelly</p>","null","","",""
"","null","html-keyboard-response","131","2.0.0","645530","pwelb1urva9","cheetah","<div style=""font-size:60px;"">+</div>","null","","",""
"","null","html-keyboard-response","132","2.0.0","647032","pwelb1urva9","cheetah","<p>crust</p>","null","","",""
"","null","html-keyboard-response","133","2.0.0","648035","pwelb1urva9","cheetah","<div style=""font-size:60px;"">+</div>","null","","",""
"","null","html-keyboard-response","134","2.0.0","649537","pwelb1urva9","cheetah","<p>flour</p>","null","","",""
"","null","html-keyboard-response","135","2.0.0","650540","pwelb1urva9","cheetah","<div style=""font-size:60px;"">+</div>","null","","",""
"","null","html-keyboard-response","136","2.0.0","652043","pwelb1urva9","cheetah","<p>butter</p>","null","","",""
"","null","html-keyboard-response","137","2.0.0","653046","pwelb1urva9","cheetah","<div style=""font-size:60px;"">+</div>","null","","",""
"","null","html-keyboard-response","138","2.0.0","654548","pwelb1urva9","cheetah","<p>dough</p>","null","","",""
"","null","html-keyboard-response","139","2.0.0","655550","pwelb1urva9","cheetah","<div style=""font-size:60px;"">+</div>","null","","",""
"","null","html-keyboard-response","140","2.0.0","657053","pwelb1urva9","cheetah","<p>food</p>","null","","",""
"","null","html-keyboard-response","141","2.0.0","658056","pwelb1urva9","cheetah","<div style=""font-size:60px;"">+</div>","null","","",""
"","null","html-keyboard-response","142","2.0.0","659559","pwelb1urva9","cheetah","<p>eat</p>","null","","",""
"","null","html-keyboard-response","143","2.0.0","660561","pwelb1urva9","cheetah","<div style=""font-size:60px;"">+</div>","null","","",""
"","null","html-keyboard-response","144","2.0.0","662064","pwelb1urva9","cheetah","<p>milk</p>","null","","",""
"","null","html-keyboard-response","145","2.0.0","663066","pwelb1urva9","cheetah","<div style=""font-size:60px;"">+</div>","null","","",""
"","null","html-keyboard-response","146","2.0.0","664568","pwelb1urva9","cheetah","<p>sandwich</p>","null","","",""
"","null","html-keyboard-response","147","2.0.0","665571","pwelb1urva9","cheetah","<div style=""font-size:60px;"">+</div>","null","","",""
"","null","html-keyboard-response","148","2.0.0","667074","pwelb1urva9","cheetah","<p>rye</p>","null","","",""
"","null","html-keyboard-response","149","2.0.0","668077","pwelb1urva9","cheetah","<div style=""font-size:60px;"">+</div>","null","","",""
"","null","html-keyboard-response","150","2.0.0","669580","pwelb1urva9","cheetah","<p>jam</p>","null","","",""
"","null","html-keyboard-response","151","2.0.0","670583","pwelb1urva9","cheetah","<div style=""font-size:60px;"">+</div>","null","","",""
"","null","html-keyboard-response","152","2.0.0","672085","pwelb1urva9","cheetah","<p>slice</p>","null","","",""
"","6676","html-keyboard-response","153","2.0.0","678762","pwelb1urva9","cheetah","Now you will rate your confidence that each word occurred on the list. <p>Please indicate whether you think the word was definitely new, probably new, probably old, or definitely old.</p> <p>Press any key to continue.</P>"," ","","",""
"","4984","survey-likert","154","null","683748","pwelb1urva9","cheetah","","{""Q0"":0}","laptop","recognition","[0]"
"","2624","survey-likert","155","null","686376","pwelb1urva9","cheetah","","{""Q0"":0}","curtain","recognition","[0]"
"","3179","survey-likert","156","null","689557","pwelb1urva9","cheetah","","{""Q0"":1}","clock","recognition","[0]"
"","3503","survey-likert","157","null","693064","pwelb1urva9","cheetah","","{""Q0"":1}","book","recognition","[0]"
"","9608","survey-likert","158","null","702675","pwelb1urva9","cheetah","","{""Q0"":0}","planet","recognition","[0]"
"","4253","survey-likert","159","null","706930","pwelb1urva9","cheetah","","{""Q0"":3}","sit","recognition","[0]"
"","4083","survey-likert","160","null","711017","pwelb1urva9","cheetah","","{""Q0"":3}","charred","recognition","[0]"
"","3568","survey-likert","161","null","714589","pwelb1urva9","cheetah","","{""Q0"":2}","balance","recognition","[0]"
"","3134","survey-likert","162","null","717727","pwelb1urva9","cheetah","","{""Q0"":3}","mad","recognition","[0]"
"","7565","survey-likert","163","null","725294","pwelb1urva9","cheetah","","{""Q0"":1}","anger","recognition","[0]"
"","4611","survey-likert","164","null","729907","pwelb1urva9","cheetah","","{""Q0"":1}","shade","recognition","[0]"
"","2332","survey-likert","165","null","732242","pwelb1urva9","cheetah","","{""Q0"":1}","balloon","recognition","[0]"
"","2554","survey-likert","166","null","734798","pwelb1urva9","cheetah","","{""Q0"":1}","lighthouse","recognition","[0]"
"","5393","survey-likert","167","null","740193","pwelb1urva9","cheetah","","{""Q0"":0}","attention","recognition","[0]"
"","5746","survey-likert","168","null","745942","pwelb1urva9","cheetah","","{""Q0"":2}","black","recognition","[0]"
"","2944","survey-likert","169","null","748888","pwelb1urva9","cheetah","","{""Q0"":3}","warm","recognition","[0]"
"","14480","survey-likert","170","null","763370","pwelb1urva9","cheetah","","{""Q0"":1}","guitar","recognition","[0]"
"","2746","survey-likert","171","null","766119","pwelb1urva9","cheetah","","{""Q0"":3}","wrath","recognition","[0]"
"","3806","survey-likert","172","null","769927","pwelb1urva9","cheetah","","{""Q0"":1}","window","recognition","[0]"
"","5847","survey-likert","173","null","775776","pwelb1urva9","cheetah","","{""Q0"":1}","white","recognition","[0]"
"","6987","survey-likert","174","null","782765","pwelb1urva9","cheetah","","{""Q0"":3}","river","recognition","[0]"
"","9062","survey-likert","175","null","791830","pwelb1urva9","cheetah","","{""Q0"":1}","ice","recognition","[0]"
"","3958","survey-likert","176","null","795790","pwelb1urva9","cheetah","","{""Q0"":3}","office","recognition","[0]"
"","4196","survey-likert","177","null","799988","pwelb1urva9","cheetah","","{""Q0"":1}","noise","recognition","[0]"
"","4605","survey-likert","178","null","804596","pwelb1urva9","cheetah","","{""Q0"":1}","conflict","recognition","[0]"
"","4136","survey-likert","179","null","808735","pwelb1urva9","cheetah","","{""Q0"":2}","chair","recognition","[0]"
"","2959","survey-likert","180","null","811698","pwelb1urva9","cheetah","","{""Q0"":1}","slice","recognition","[0]"
"","4071","survey-likert","181","null","815772","pwelb1urva9","cheetah","","{""Q0"":1}","procedure","recognition","[0]"
"","4717","survey-likert","182","null","820491","pwelb1urva9","cheetah","","{""Q0"":0}","mountain","recognition","[0]"
"","8868","survey-likert","183","null","829360","pwelb1urva9","cheetah","","{""Q0"":1}","frame","recognition","[0]"
"","4430","survey-likert","184","null","833794","pwelb1urva9","cheetah","","{""Q0"":0}","rye","recognition","[0]"
"","9836","survey-likert","185","null","843632","pwelb1urva9","cheetah","","{""Q0"":2}","oven","recognition","[0]"
"","1727","survey-likert","186","null","845362","pwelb1urva9","cheetah","","{""Q0"":2}","bread","recognition","[0]"
"","2570","survey-likert","187","null","847934","pwelb1urva9","cheetah","","{""Q0"":3}","nurse","recognition","[0]"
"","3186","survey-likert","188","null","851123","pwelb1urva9","cheetah","","{""Q0"":3}","seat","recognition","[0]"
"","2714","survey-likert","189","null","853840","pwelb1urva9","cheetah","","{""Q0"":1}","void","recognition","[0]"
"","4203","survey-likert","190","null","858046","pwelb1urva9","cheetah","","{""Q0"":0}","doctor","recognition","[0]"
"","8427","survey-likert","191","null","866476","pwelb1urva9","cheetah","","{""Q0"":2}","cold","recognition","[0]"
"","2413","survey-likert","192","null","868891","pwelb1urva9","cheetah","","{""Q0"":1}","camera","recognition","[0]"
"","1707","survey-likert","193","null","870600","pwelb1urva9","cheetah","","{""Q0"":1}","drift","recognition","[0]"
"","3040","survey-likert","194","null","873644","pwelb1urva9","cheetah","","{""Q0"":0}","elephant","recognition","[0]"
"","2176","survey-likert","195","null","875823","pwelb1urva9","cheetah","","{""Q0"":0}","basket","recognition","[0]"
"","45839","survey-text","196","2.0.0","921668","pwelb1urva9","cheetah","","{""age"":""24"",""gender"":""male"",""Q2"":""how susceptible I am to remembering words that are related to the words shown at the end?"",""Q3"":""none""}","","",""
